#
# Results on Thu, 06 Jul 2023 22:04:28 GMT
# USER AGENT: Mozilla/5.0 (X11; Ubuntu; Linux x86_64; rv:109.0) Gecko/20100101 Firefox/113.0
# Design number was non-random = 2
#
# Columns below this comment are as follows:
# 1. Results reception time.
# 2. MD5 hash of participant's IP address.
# 3. Controller name.
# 4. Order number of item.
# 5. Inner element number.
# 6. Label.
# 7. Latin Square Group.
# 8. PennElementType.
# 9. PennElementName.
# 10. Parameter.
# 11. Value.
# 12. EventTime.
# 13. survey.
# 14. Comments.
1688681068,e5b86db0b5208817561e19a67743ef56,PennController,1,0,consent,NULL,PennController,0,_Trial_,Start,1688680541686,CAPsurvey,NULL
1688681068,e5b86db0b5208817561e19a67743ef56,PennController,1,0,consent,NULL,PennController,0,_Header_,Start,1688680541686,CAPsurvey,NULL
1688681068,e5b86db0b5208817561e19a67743ef56,PennController,1,0,consent,NULL,PennController,0,_Header_,End,1688680541687,CAPsurvey,NULL
1688681068,e5b86db0b5208817561e19a67743ef56,PennController,1,0,consent,NULL,PennController,0,_Trial_,End,1688680544075,CAPsurvey,NULL
1688681068,e5b86db0b5208817561e19a67743ef56,PennController,2,0,consent2,NULL,PennController,1,_Trial_,Start,1688680544079,CAPsurvey,NULL
1688681068,e5b86db0b5208817561e19a67743ef56,PennController,2,0,consent2,NULL,PennController,1,_Header_,Start,1688680544079,CAPsurvey,NULL
1688681068,e5b86db0b5208817561e19a67743ef56,PennController,2,0,consent2,NULL,PennController,1,_Header_,End,1688680544079,CAPsurvey,NULL
1688681068,e5b86db0b5208817561e19a67743ef56,PennController,2,0,consent2,NULL,Html,consent2,prolific_id,123,1688680551252,CAPsurvey,text input
1688681068,e5b86db0b5208817561e19a67743ef56,PennController,2,0,consent2,NULL,Html,consent2,consent_checkbox,checked,1688680551253,CAPsurvey,checkbox
1688681068,e5b86db0b5208817561e19a67743ef56,PennController,2,0,consent2,NULL,PennController,1,_Trial_,End,1688680551253,CAPsurvey,NULL
1688681068,e5b86db0b5208817561e19a67743ef56,PennController,3,0,demographics,NULL,PennController,2,_Trial_,Start,1688680551261,CAPsurvey,NULL
1688681068,e5b86db0b5208817561e19a67743ef56,PennController,3,0,demographics,NULL,PennController,2,_Header_,Start,1688680551261,CAPsurvey,NULL
1688681068,e5b86db0b5208817561e19a67743ef56,PennController,3,0,demographics,NULL,PennController,2,_Header_,End,1688680551262,CAPsurvey,NULL
1688681068,e5b86db0b5208817561e19a67743ef56,PennController,3,0,demographics,NULL,Html,demographics,Native_language,deutsch,1688680561948,CAPsurvey,text input
1688681068,e5b86db0b5208817561e19a67743ef56,PennController,3,0,demographics,NULL,Html,demographics,L1,,1688680561948,CAPsurvey,text input
1688681068,e5b86db0b5208817561e19a67743ef56,PennController,3,0,demographics,NULL,Html,demographics,L1_age,,1688680561948,CAPsurvey,text input
1688681068,e5b86db0b5208817561e19a67743ef56,PennController,3,0,demographics,NULL,Html,demographics,L2,,1688680561948,CAPsurvey,text input
1688681068,e5b86db0b5208817561e19a67743ef56,PennController,3,0,demographics,NULL,Html,demographics,L2_age,,1688680561948,CAPsurvey,text input
1688681068,e5b86db0b5208817561e19a67743ef56,PennController,3,0,demographics,NULL,Html,demographics,L3,,1688680561948,CAPsurvey,text input
1688681068,e5b86db0b5208817561e19a67743ef56,PennController,3,0,demographics,NULL,Html,demographics,L3_age,,1688680561948,CAPsurvey,text input
1688681068,e5b86db0b5208817561e19a67743ef56,PennController,3,0,demographics,NULL,Html,demographics,Age,26,1688680561948,CAPsurvey,text input
1688681068,e5b86db0b5208817561e19a67743ef56,PennController,3,0,demographics,NULL,Html,demographics,gender,female,1688680561948,CAPsurvey,radio button
1688681068,e5b86db0b5208817561e19a67743ef56,PennController,3,0,demographics,NULL,Html,demographics,handedness,righthanded,1688680561948,CAPsurvey,radio button
1688681068,e5b86db0b5208817561e19a67743ef56,PennController,3,0,demographics,NULL,PennController,2,_Trial_,End,1688680561948,CAPsurvey,NULL
1688681068,e5b86db0b5208817561e19a67743ef56,PennController,4,0,instructions1,NULL,PennController,3,_Trial_,Start,1688680561955,CAPsurvey,NULL
1688681068,e5b86db0b5208817561e19a67743ef56,PennController,4,0,instructions1,NULL,PennController,3,_Header_,Start,1688680561955,CAPsurvey,NULL
1688681068,e5b86db0b5208817561e19a67743ef56,PennController,4,0,instructions1,NULL,PennController,3,_Header_,End,1688680561955,CAPsurvey,NULL
1688681068,e5b86db0b5208817561e19a67743ef56,PennController,4,0,instructions1,NULL,PennController,3,_Trial_,End,1688680564277,CAPsurvey,NULL
1688681068,e5b86db0b5208817561e19a67743ef56,PennController,5,0,instructions2,NULL,PennController,4,_Trial_,Start,1688680564286,CAPsurvey,NULL
1688681068,e5b86db0b5208817561e19a67743ef56,PennController,5,0,instructions2,NULL,PennController,4,_Header_,Start,1688680564286,CAPsurvey,NULL
1688681068,e5b86db0b5208817561e19a67743ef56,PennController,5,0,instructions2,NULL,PennController,4,_Header_,End,1688680564287,CAPsurvey,NULL
1688681068,e5b86db0b5208817561e19a67743ef56,PennController,5,0,instructions2,NULL,PennController,4,_Trial_,End,1688680570310,CAPsurvey,NULL
1688681068,e5b86db0b5208817561e19a67743ef56,PennController,6,0,instructions3,NULL,PennController,5,_Trial_,Start,1688680570317,CAPsurvey,NULL
1688681068,e5b86db0b5208817561e19a67743ef56,PennController,6,0,instructions3,NULL,PennController,5,_Header_,Start,1688680570317,CAPsurvey,NULL
1688681068,e5b86db0b5208817561e19a67743ef56,PennController,6,0,instructions3,NULL,PennController,5,_Header_,End,1688680570318,CAPsurvey,NULL
1688681068,e5b86db0b5208817561e19a67743ef56,PennController,6,0,instructions3,NULL,Canvas,Canvas,Print,NA,1688680570319,CAPsurvey,NULL
1688681068,e5b86db0b5208817561e19a67743ef56,PennController,6,0,instructions3,NULL,PennController,5,_Trial_,End,1688680571785,CAPsurvey,NULL
# 13. Item.
# 14. Condition.
# 15. List.
# 16. Critical.
# 17. QuestionCorrect.
# 18. QuestionText.
# 19. QuestionCondition.
# 20. Comments.
1688681068,e5b86db0b5208817561e19a67743ef56,PennController,9,0,practice,NULL,PennController,13,_Trial_,Start,1688680571794,255,255,,,K,Hat der Interessent eine Anleihe erworben?,manipulation,NULL
1688681068,e5b86db0b5208817561e19a67743ef56,PennController,9,0,practice,NULL,PennController,13,_Header_,Start,1688680571794,255,255,,,K,Hat der Interessent eine Anleihe erworben?,manipulation,NULL
1688681068,e5b86db0b5208817561e19a67743ef56,PennController,9,0,practice,NULL,PennController,13,_Header_,End,1688680571794,255,255,,,K,Hat der Interessent eine Anleihe erworben?,manipulation,NULL
# 20. Reading time.
# 21. Newline?.
# 22. Sentence (or sentence MD5).
# 23. Comments.
1688681068,e5b86db0b5208817561e19a67743ef56,PennController,9,0,practice,NULL,Controller-DashedSentence,DashedSentence,1,Am,1688680574817,255,255,,,K,Hat der Interessent eine Anleihe erworben?,manipulation,501,false,Am Ende erwarb der Interessent die Anleihe und dann dankte er der Bankkauffrau für ihre Beratung.,Any addtional parameters were appended as additional columns
1688681068,e5b86db0b5208817561e19a67743ef56,PennController,9,0,practice,NULL,Controller-DashedSentence,DashedSentence,2,Ende,1688680574817,255,255,,,K,Hat der Interessent eine Anleihe erworben?,manipulation,31,false,Am Ende erwarb der Interessent die Anleihe und dann dankte er der Bankkauffrau für ihre Beratung.,Any addtional parameters were appended as additional columns
1688681068,e5b86db0b5208817561e19a67743ef56,PennController,9,0,practice,NULL,Controller-DashedSentence,DashedSentence,3,erwarb,1688680574817,255,255,,,K,Hat der Interessent eine Anleihe erworben?,manipulation,30,false,Am Ende erwarb der Interessent die Anleihe und dann dankte er der Bankkauffrau für ihre Beratung.,Any addtional parameters were appended as additional columns
1688681068,e5b86db0b5208817561e19a67743ef56,PennController,9,0,practice,NULL,Controller-DashedSentence,DashedSentence,4,der,1688680574817,255,255,,,K,Hat der Interessent eine Anleihe erworben?,manipulation,30,false,Am Ende erwarb der Interessent die Anleihe und dann dankte er der Bankkauffrau für ihre Beratung.,Any addtional parameters were appended as additional columns
1688681068,e5b86db0b5208817561e19a67743ef56,PennController,9,0,practice,NULL,Controller-DashedSentence,DashedSentence,5,Interessent,1688680574817,255,255,,,K,Hat der Interessent eine Anleihe erworben?,manipulation,30,false,Am Ende erwarb der Interessent die Anleihe und dann dankte er der Bankkauffrau für ihre Beratung.,Any addtional parameters were appended as additional columns
1688681068,e5b86db0b5208817561e19a67743ef56,PennController,9,0,practice,NULL,Controller-DashedSentence,DashedSentence,6,die,1688680574817,255,255,,,K,Hat der Interessent eine Anleihe erworben?,manipulation,30,false,Am Ende erwarb der Interessent die Anleihe und dann dankte er der Bankkauffrau für ihre Beratung.,Any addtional parameters were appended as additional columns
1688681068,e5b86db0b5208817561e19a67743ef56,PennController,9,0,practice,NULL,Controller-DashedSentence,DashedSentence,7,Anleihe,1688680574817,255,255,,,K,Hat der Interessent eine Anleihe erworben?,manipulation,31,false,Am Ende erwarb der Interessent die Anleihe und dann dankte er der Bankkauffrau für ihre Beratung.,Any addtional parameters were appended as additional columns
1688681068,e5b86db0b5208817561e19a67743ef56,PennController,9,0,practice,NULL,Controller-DashedSentence,DashedSentence,8,und,1688680574817,255,255,,,K,Hat der Interessent eine Anleihe erworben?,manipulation,30,false,Am Ende erwarb der Interessent die Anleihe und dann dankte er der Bankkauffrau für ihre Beratung.,Any addtional parameters were appended as additional columns
1688681068,e5b86db0b5208817561e19a67743ef56,PennController,9,0,practice,NULL,Controller-DashedSentence,DashedSentence,9,dann,1688680574817,255,255,,,K,Hat der Interessent eine Anleihe erworben?,manipulation,30,false,Am Ende erwarb der Interessent die Anleihe und dann dankte er der Bankkauffrau für ihre Beratung.,Any addtional parameters were appended as additional columns
1688681068,e5b86db0b5208817561e19a67743ef56,PennController,9,0,practice,NULL,Controller-DashedSentence,DashedSentence,10,dankte,1688680574817,255,255,,,K,Hat der Interessent eine Anleihe erworben?,manipulation,30,false,Am Ende erwarb der Interessent die Anleihe und dann dankte er der Bankkauffrau für ihre Beratung.,Any addtional parameters were appended as additional columns
1688681068,e5b86db0b5208817561e19a67743ef56,PennController,9,0,practice,NULL,Controller-DashedSentence,DashedSentence,11,er,1688680574817,255,255,,,K,Hat der Interessent eine Anleihe erworben?,manipulation,30,false,Am Ende erwarb der Interessent die Anleihe und dann dankte er der Bankkauffrau für ihre Beratung.,Any addtional parameters were appended as additional columns
1688681068,e5b86db0b5208817561e19a67743ef56,PennController,9,0,practice,NULL,Controller-DashedSentence,DashedSentence,12,der,1688680574817,255,255,,,K,Hat der Interessent eine Anleihe erworben?,manipulation,30,false,Am Ende erwarb der Interessent die Anleihe und dann dankte er der Bankkauffrau für ihre Beratung.,Any addtional parameters were appended as additional columns
1688681068,e5b86db0b5208817561e19a67743ef56,PennController,9,0,practice,NULL,Controller-DashedSentence,DashedSentence,13,Bankkauffrau,1688680574817,255,255,,,K,Hat der Interessent eine Anleihe erworben?,manipulation,30,false,Am Ende erwarb der Interessent die Anleihe und dann dankte er der Bankkauffrau für ihre Beratung.,Any addtional parameters were appended as additional columns
1688681068,e5b86db0b5208817561e19a67743ef56,PennController,9,0,practice,NULL,Controller-DashedSentence,DashedSentence,14,für,1688680574817,255,255,,,K,Hat der Interessent eine Anleihe erworben?,manipulation,30,false,Am Ende erwarb der Interessent die Anleihe und dann dankte er der Bankkauffrau für ihre Beratung.,Any addtional parameters were appended as additional columns
1688681068,e5b86db0b5208817561e19a67743ef56,PennController,9,0,practice,NULL,Controller-DashedSentence,DashedSentence,15,ihre,1688680574817,255,255,,,K,Hat der Interessent eine Anleihe erworben?,manipulation,31,false,Am Ende erwarb der Interessent die Anleihe und dann dankte er der Bankkauffrau für ihre Beratung.,Any addtional parameters were appended as additional columns
1688681068,e5b86db0b5208817561e19a67743ef56,PennController,9,0,practice,NULL,Controller-DashedSentence,DashedSentence,16,Beratung.,1688680574817,255,255,,,K,Hat der Interessent eine Anleihe erworben?,manipulation,30,false,Am Ende erwarb der Interessent die Anleihe und dann dankte er der Bankkauffrau für ihre Beratung.,Any addtional parameters were appended as additional columns
# 20. Comments.
1688681068,e5b86db0b5208817561e19a67743ef56,PennController,9,0,practice,NULL,Controller-AcceptabilityJudgment,practice_accept,,NULL,1688680576634,255,255,,,K,Hat der Interessent eine Anleihe erworben?,manipulation,Any addtional parameters were appended as additional columns
# 20. Whether or not answer was correct (NULL if N/A).
# 21. Time taken to answer..
# 22. Comments.
1688681068,e5b86db0b5208817561e19a67743ef56,PennController,9,0,practice,NULL,Controller-AcceptabilityJudgment,practice_accept,NULL,3,1688680576634,255,255,,,K,Hat der Interessent eine Anleihe erworben?,manipulation,NULL,1812,Any addtional parameters were appended as additional columns
# 20. Comments.
1688681068,e5b86db0b5208817561e19a67743ef56,PennController,9,0,practice,NULL,Canvas,ComprehensionQuestion,Print,NA,1688680576638,255,255,,,K,Hat der Interessent eine Anleihe erworben?,manipulation,NULL
1688681068,e5b86db0b5208817561e19a67743ef56,PennController,9,0,practice,NULL,Key,ComprehensionDecide,PressedKey,D,1688680578023,255,255,,,K,Hat der Interessent eine Anleihe erworben?,manipulation,Wait success
1688681068,e5b86db0b5208817561e19a67743ef56,PennController,9,0,practice,NULL,PennController,13,_Trial_,End,1688680578028,255,255,,,K,Hat der Interessent eine Anleihe erworben?,manipulation,NULL
1688681068,e5b86db0b5208817561e19a67743ef56,PennController,10,0,practice,NULL,PennController,14,_Trial_,Start,1688680578034,255,255,,,,,,NULL
1688681068,e5b86db0b5208817561e19a67743ef56,PennController,10,0,practice,NULL,PennController,14,_Header_,Start,1688680578034,255,255,,,,,,NULL
1688681068,e5b86db0b5208817561e19a67743ef56,PennController,10,0,practice,NULL,PennController,14,_Header_,End,1688680578035,255,255,,,,,,NULL
# 20. Reading time.
# 21. Newline?.
# 22. Sentence (or sentence MD5).
# 23. Comments.
1688681068,e5b86db0b5208817561e19a67743ef56,PennController,10,0,practice,NULL,Controller-DashedSentence,DashedSentence,1,Daraufhin,1688680579963,255,255,,,,,,501,false,Daraufhin überwies der Mediziner den Sozialarbeiter.,Any addtional parameters were appended as additional columns
1688681068,e5b86db0b5208817561e19a67743ef56,PennController,10,0,practice,NULL,Controller-DashedSentence,DashedSentence,2,überwies,1688680579963,255,255,,,,,,29,false,Daraufhin überwies der Mediziner den Sozialarbeiter.,Any addtional parameters were appended as additional columns
1688681068,e5b86db0b5208817561e19a67743ef56,PennController,10,0,practice,NULL,Controller-DashedSentence,DashedSentence,3,der,1688680579963,255,255,,,,,,30,false,Daraufhin überwies der Mediziner den Sozialarbeiter.,Any addtional parameters were appended as additional columns
1688681068,e5b86db0b5208817561e19a67743ef56,PennController,10,0,practice,NULL,Controller-DashedSentence,DashedSentence,4,Mediziner,1688680579963,255,255,,,,,,31,false,Daraufhin überwies der Mediziner den Sozialarbeiter.,Any addtional parameters were appended as additional columns
1688681068,e5b86db0b5208817561e19a67743ef56,PennController,10,0,practice,NULL,Controller-DashedSentence,DashedSentence,5,den,1688680579963,255,255,,,,,,30,false,Daraufhin überwies der Mediziner den Sozialarbeiter.,Any addtional parameters were appended as additional columns
1688681068,e5b86db0b5208817561e19a67743ef56,PennController,10,0,practice,NULL,Controller-DashedSentence,DashedSentence,6,Sozialarbeiter.,1688680579963,255,255,,,,,,29,false,Daraufhin überwies der Mediziner den Sozialarbeiter.,Any addtional parameters were appended as additional columns
# 20. Comments.
1688681068,e5b86db0b5208817561e19a67743ef56,PennController,10,0,practice,NULL,Controller-AcceptabilityJudgment,practice_accept,,NULL,1688680581851,255,255,,,,,,Any addtional parameters were appended as additional columns
# 20. Whether or not answer was correct (NULL if N/A).
# 21. Time taken to answer..
# 22. Comments.
1688681068,e5b86db0b5208817561e19a67743ef56,PennController,10,0,practice,NULL,Controller-AcceptabilityJudgment,practice_accept,NULL,3,1688680581851,255,255,,,,,,NULL,1885,Any addtional parameters were appended as additional columns
# 20. Comments.
1688681068,e5b86db0b5208817561e19a67743ef56,PennController,10,0,practice,NULL,PennController,14,_Trial_,End,1688680581854,255,255,,,,,,NULL
1688681068,e5b86db0b5208817561e19a67743ef56,PennController,11,0,practice,NULL,PennController,15,_Trial_,Start,1688680581859,255,255,,,D,Hat der Eigentümer den Feuerwehrmann beleidigt?,paragraph,NULL
1688681068,e5b86db0b5208817561e19a67743ef56,PennController,11,0,practice,NULL,PennController,15,_Header_,Start,1688680581859,255,255,,,D,Hat der Eigentümer den Feuerwehrmann beleidigt?,paragraph,NULL
1688681068,e5b86db0b5208817561e19a67743ef56,PennController,11,0,practice,NULL,PennController,15,_Header_,End,1688680581860,255,255,,,D,Hat der Eigentümer den Feuerwehrmann beleidigt?,paragraph,NULL
# 20. Reading time.
# 21. Newline?.
# 22. Sentence (or sentence MD5).
# 23. Comments.
1688681068,e5b86db0b5208817561e19a67743ef56,PennController,11,0,practice,NULL,Controller-DashedSentence,DashedSentence,1,Dann,1688680584659,255,255,,,D,Hat der Eigentümer den Feuerwehrmann beleidigt?,paragraph,616,false,Dann sprühte der Feuerwehrmann den Eigentümer und daraufhin betrat er das Haus.,Any addtional parameters were appended as additional columns
1688681068,e5b86db0b5208817561e19a67743ef56,PennController,11,0,practice,NULL,Controller-DashedSentence,DashedSentence,2,sprühte,1688680584659,255,255,,,D,Hat der Eigentümer den Feuerwehrmann beleidigt?,paragraph,501,false,Dann sprühte der Feuerwehrmann den Eigentümer und daraufhin betrat er das Haus.,Any addtional parameters were appended as additional columns
1688681068,e5b86db0b5208817561e19a67743ef56,PennController,11,0,practice,NULL,Controller-DashedSentence,DashedSentence,3,der,1688680584659,255,255,,,D,Hat der Eigentümer den Feuerwehrmann beleidigt?,paragraph,29,false,Dann sprühte der Feuerwehrmann den Eigentümer und daraufhin betrat er das Haus.,Any addtional parameters were appended as additional columns
1688681068,e5b86db0b5208817561e19a67743ef56,PennController,11,0,practice,NULL,Controller-DashedSentence,DashedSentence,4,Feuerwehrmann,1688680584659,255,255,,,D,Hat der Eigentümer den Feuerwehrmann beleidigt?,paragraph,30,false,Dann sprühte der Feuerwehrmann den Eigentümer und daraufhin betrat er das Haus.,Any addtional parameters were appended as additional columns
1688681068,e5b86db0b5208817561e19a67743ef56,PennController,11,0,practice,NULL,Controller-DashedSentence,DashedSentence,5,den,1688680584659,255,255,,,D,Hat der Eigentümer den Feuerwehrmann beleidigt?,paragraph,30,false,Dann sprühte der Feuerwehrmann den Eigentümer und daraufhin betrat er das Haus.,Any addtional parameters were appended as additional columns
1688681068,e5b86db0b5208817561e19a67743ef56,PennController,11,0,practice,NULL,Controller-DashedSentence,DashedSentence,6,Eigentümer,1688680584659,255,255,,,D,Hat der Eigentümer den Feuerwehrmann beleidigt?,paragraph,30,false,Dann sprühte der Feuerwehrmann den Eigentümer und daraufhin betrat er das Haus.,Any addtional parameters were appended as additional columns
1688681068,e5b86db0b5208817561e19a67743ef56,PennController,11,0,practice,NULL,Controller-DashedSentence,DashedSentence,7,und,1688680584659,255,255,,,D,Hat der Eigentümer den Feuerwehrmann beleidigt?,paragraph,30,false,Dann sprühte der Feuerwehrmann den Eigentümer und daraufhin betrat er das Haus.,Any addtional parameters were appended as additional columns
1688681068,e5b86db0b5208817561e19a67743ef56,PennController,11,0,practice,NULL,Controller-DashedSentence,DashedSentence,8,daraufhin,1688680584659,255,255,,,D,Hat der Eigentümer den Feuerwehrmann beleidigt?,paragraph,29,false,Dann sprühte der Feuerwehrmann den Eigentümer und daraufhin betrat er das Haus.,Any addtional parameters were appended as additional columns
1688681068,e5b86db0b5208817561e19a67743ef56,PennController,11,0,practice,NULL,Controller-DashedSentence,DashedSentence,9,betrat,1688680584659,255,255,,,D,Hat der Eigentümer den Feuerwehrmann beleidigt?,paragraph,30,false,Dann sprühte der Feuerwehrmann den Eigentümer und daraufhin betrat er das Haus.,Any addtional parameters were appended as additional columns
1688681068,e5b86db0b5208817561e19a67743ef56,PennController,11,0,practice,NULL,Controller-DashedSentence,DashedSentence,10,er,1688680584659,255,255,,,D,Hat der Eigentümer den Feuerwehrmann beleidigt?,paragraph,30,false,Dann sprühte der Feuerwehrmann den Eigentümer und daraufhin betrat er das Haus.,Any addtional parameters were appended as additional columns
1688681068,e5b86db0b5208817561e19a67743ef56,PennController,11,0,practice,NULL,Controller-DashedSentence,DashedSentence,11,das,1688680584659,255,255,,,D,Hat der Eigentümer den Feuerwehrmann beleidigt?,paragraph,31,false,Dann sprühte der Feuerwehrmann den Eigentümer und daraufhin betrat er das Haus.,Any addtional parameters were appended as additional columns
1688681068,e5b86db0b5208817561e19a67743ef56,PennController,11,0,practice,NULL,Controller-DashedSentence,DashedSentence,12,Haus.,1688680584659,255,255,,,D,Hat der Eigentümer den Feuerwehrmann beleidigt?,paragraph,30,false,Dann sprühte der Feuerwehrmann den Eigentümer und daraufhin betrat er das Haus.,Any addtional parameters were appended as additional columns
# 20. Comments.
1688681068,e5b86db0b5208817561e19a67743ef56,PennController,11,0,practice,NULL,Controller-AcceptabilityJudgment,practice_accept,,NULL,1688680585709,255,255,,,D,Hat der Eigentümer den Feuerwehrmann beleidigt?,paragraph,Any addtional parameters were appended as additional columns
# 20. Whether or not answer was correct (NULL if N/A).
# 21. Time taken to answer..
# 22. Comments.
1688681068,e5b86db0b5208817561e19a67743ef56,PennController,11,0,practice,NULL,Controller-AcceptabilityJudgment,practice_accept,NULL,3,1688680585709,255,255,,,D,Hat der Eigentümer den Feuerwehrmann beleidigt?,paragraph,NULL,1045,Any addtional parameters were appended as additional columns
# 20. Comments.
1688681068,e5b86db0b5208817561e19a67743ef56,PennController,11,0,practice,NULL,Canvas,ComprehensionQuestion,Print,NA,1688680585712,255,255,,,D,Hat der Eigentümer den Feuerwehrmann beleidigt?,paragraph,NULL
1688681068,e5b86db0b5208817561e19a67743ef56,PennController,11,0,practice,NULL,Key,ComprehensionDecide,PressedKey,D,1688680586856,255,255,,,D,Hat der Eigentümer den Feuerwehrmann beleidigt?,paragraph,Wait success
1688681068,e5b86db0b5208817561e19a67743ef56,PennController,11,0,practice,NULL,PennController,15,_Trial_,End,1688680586860,255,255,,,D,Hat der Eigentümer den Feuerwehrmann beleidigt?,paragraph,NULL
# 13. Comments.
1688681068,e5b86db0b5208817561e19a67743ef56,PennController,12,0,practice_feedback,NULL,PennController,8,_Trial_,Start,1688680586864,NULL
1688681068,e5b86db0b5208817561e19a67743ef56,PennController,12,0,practice_feedback,NULL,PennController,8,_Header_,Start,1688680586864,NULL
1688681068,e5b86db0b5208817561e19a67743ef56,PennController,12,0,practice_feedback,NULL,PennController,8,_Header_,End,1688680586864,NULL
1688681068,e5b86db0b5208817561e19a67743ef56,PennController,12,0,practice_feedback,NULL,Var,meanPracAcc,Final,0.5,1688680590710,Value at the end of the trial
1688681068,e5b86db0b5208817561e19a67743ef56,PennController,12,0,practice_feedback,NULL,PennController,8,_Trial_,End,1688680590710,NULL
# 13. Item.
# 14. Condition.
# 15. List.
# 16. Critical.
# 17. QuestionCorrect.
# 18. QuestionText.
# 19. QuestionCondition.
# 20. Comments.
1688681068,e5b86db0b5208817561e19a67743ef56,PennController,13,0,block1,NULL,PennController,16,_Trial_,Start,1688680590720,119,256,1,6,,,,NULL
1688681068,e5b86db0b5208817561e19a67743ef56,PennController,13,0,block1,NULL,PennController,16,_Header_,Start,1688680590721,119,256,1,6,,,,NULL
1688681068,e5b86db0b5208817561e19a67743ef56,PennController,13,0,block1,NULL,PennController,16,_Header_,End,1688680590721,119,256,1,6,,,,NULL
# 20. Reading time.
# 21. Newline?.
# 22. Sentence (or sentence MD5).
# 23. Comments.
1688681068,e5b86db0b5208817561e19a67743ef56,PennController,13,0,block1,NULL,Controller-DashedSentence,DashedSentence,1,Daraufhin,1688680593069,119,256,1,6,,,,499,false,Daraufhin belächelte die Putzfrau den Pianisten und danach lauschte sie seiner Musik.,Any addtional parameters were appended as additional columns
1688681068,e5b86db0b5208817561e19a67743ef56,PennController,13,0,block1,NULL,Controller-DashedSentence,DashedSentence,2,belächelte,1688680593069,119,256,1,6,,,,30,false,Daraufhin belächelte die Putzfrau den Pianisten und danach lauschte sie seiner Musik.,Any addtional parameters were appended as additional columns
1688681068,e5b86db0b5208817561e19a67743ef56,PennController,13,0,block1,NULL,Controller-DashedSentence,DashedSentence,3,die,1688680593069,119,256,1,6,,,,32,false,Daraufhin belächelte die Putzfrau den Pianisten und danach lauschte sie seiner Musik.,Any addtional parameters were appended as additional columns
1688681068,e5b86db0b5208817561e19a67743ef56,PennController,13,0,block1,NULL,Controller-DashedSentence,DashedSentence,4,Putzfrau,1688680593069,119,256,1,6,,,,30,false,Daraufhin belächelte die Putzfrau den Pianisten und danach lauschte sie seiner Musik.,Any addtional parameters were appended as additional columns
1688681068,e5b86db0b5208817561e19a67743ef56,PennController,13,0,block1,NULL,Controller-DashedSentence,DashedSentence,5,den,1688680593069,119,256,1,6,,,,30,false,Daraufhin belächelte die Putzfrau den Pianisten und danach lauschte sie seiner Musik.,Any addtional parameters were appended as additional columns
1688681068,e5b86db0b5208817561e19a67743ef56,PennController,13,0,block1,NULL,Controller-DashedSentence,DashedSentence,6,Pianisten,1688680593069,119,256,1,6,,,,30,false,Daraufhin belächelte die Putzfrau den Pianisten und danach lauschte sie seiner Musik.,Any addtional parameters were appended as additional columns
1688681068,e5b86db0b5208817561e19a67743ef56,PennController,13,0,block1,NULL,Controller-DashedSentence,DashedSentence,7,und,1688680593069,119,256,1,6,,,,30,false,Daraufhin belächelte die Putzfrau den Pianisten und danach lauschte sie seiner Musik.,Any addtional parameters were appended as additional columns
1688681068,e5b86db0b5208817561e19a67743ef56,PennController,13,0,block1,NULL,Controller-DashedSentence,DashedSentence,8,danach,1688680593069,119,256,1,6,,,,30,false,Daraufhin belächelte die Putzfrau den Pianisten und danach lauschte sie seiner Musik.,Any addtional parameters were appended as additional columns
1688681068,e5b86db0b5208817561e19a67743ef56,PennController,13,0,block1,NULL,Controller-DashedSentence,DashedSentence,9,lauschte,1688680593069,119,256,1,6,,,,30,false,Daraufhin belächelte die Putzfrau den Pianisten und danach lauschte sie seiner Musik.,Any addtional parameters were appended as additional columns
1688681068,e5b86db0b5208817561e19a67743ef56,PennController,13,0,block1,NULL,Controller-DashedSentence,DashedSentence,10,sie,1688680593069,119,256,1,6,,,,31,false,Daraufhin belächelte die Putzfrau den Pianisten und danach lauschte sie seiner Musik.,Any addtional parameters were appended as additional columns
1688681068,e5b86db0b5208817561e19a67743ef56,PennController,13,0,block1,NULL,Controller-DashedSentence,DashedSentence,11,seiner,1688680593069,119,256,1,6,,,,29,false,Daraufhin belächelte die Putzfrau den Pianisten und danach lauschte sie seiner Musik.,Any addtional parameters were appended as additional columns
1688681068,e5b86db0b5208817561e19a67743ef56,PennController,13,0,block1,NULL,Controller-DashedSentence,DashedSentence,12,Musik.,1688680593069,119,256,1,6,,,,31,false,Daraufhin belächelte die Putzfrau den Pianisten und danach lauschte sie seiner Musik.,Any addtional parameters were appended as additional columns
# 20. Comments.
1688681068,e5b86db0b5208817561e19a67743ef56,PennController,13,0,block1,NULL,Controller-AcceptabilityJudgment,block1_accept,,NULL,1688680595133,119,256,1,6,,,,Any addtional parameters were appended as additional columns
# 20. Whether or not answer was correct (NULL if N/A).
# 21. Time taken to answer..
# 22. Comments.
1688681068,e5b86db0b5208817561e19a67743ef56,PennController,13,0,block1,NULL,Controller-AcceptabilityJudgment,block1_accept,NULL,2,1688680595133,119,256,1,6,,,,NULL,2061,Any addtional parameters were appended as additional columns
# 20. Comments.
1688681068,e5b86db0b5208817561e19a67743ef56,PennController,13,0,block1,NULL,PennController,16,_Trial_,End,1688680595138,119,256,1,6,,,,NULL
1688681068,e5b86db0b5208817561e19a67743ef56,PennController,14,0,block1,NULL,PennController,17,_Trial_,Start,1688680595143,131,257,1,6,K,Hat der Professor die Haushaltshilfe in den Feierabend entlassen?,manipulation,NULL
1688681068,e5b86db0b5208817561e19a67743ef56,PennController,14,0,block1,NULL,PennController,17,_Header_,Start,1688680595143,131,257,1,6,K,Hat der Professor die Haushaltshilfe in den Feierabend entlassen?,manipulation,NULL
1688681068,e5b86db0b5208817561e19a67743ef56,PennController,14,0,block1,NULL,PennController,17,_Header_,End,1688680595144,131,257,1,6,K,Hat der Professor die Haushaltshilfe in den Feierabend entlassen?,manipulation,NULL
# 20. Reading time.
# 21. Newline?.
# 22. Sentence (or sentence MD5).
# 23. Comments.
1688681068,e5b86db0b5208817561e19a67743ef56,PennController,14,0,block1,NULL,Controller-DashedSentence,DashedSentence,1,Dann,1688680597920,131,257,1,6,K,Hat der Professor die Haushaltshilfe in den Feierabend entlassen?,manipulation,502,false,Dann entließ der Professor die Haushaltshilfe in den Feierabend und dabei berichtigte er schmunzelnd ihre Aussprache.,Any addtional parameters were appended as additional columns
1688681068,e5b86db0b5208817561e19a67743ef56,PennController,14,0,block1,NULL,Controller-DashedSentence,DashedSentence,2,entließ,1688680597920,131,257,1,6,K,Hat der Professor die Haushaltshilfe in den Feierabend entlassen?,manipulation,30,false,Dann entließ der Professor die Haushaltshilfe in den Feierabend und dabei berichtigte er schmunzelnd ihre Aussprache.,Any addtional parameters were appended as additional columns
1688681068,e5b86db0b5208817561e19a67743ef56,PennController,14,0,block1,NULL,Controller-DashedSentence,DashedSentence,3,der,1688680597920,131,257,1,6,K,Hat der Professor die Haushaltshilfe in den Feierabend entlassen?,manipulation,30,false,Dann entließ der Professor die Haushaltshilfe in den Feierabend und dabei berichtigte er schmunzelnd ihre Aussprache.,Any addtional parameters were appended as additional columns
1688681068,e5b86db0b5208817561e19a67743ef56,PennController,14,0,block1,NULL,Controller-DashedSentence,DashedSentence,4,Professor,1688680597920,131,257,1,6,K,Hat der Professor die Haushaltshilfe in den Feierabend entlassen?,manipulation,31,false,Dann entließ der Professor die Haushaltshilfe in den Feierabend und dabei berichtigte er schmunzelnd ihre Aussprache.,Any addtional parameters were appended as additional columns
1688681068,e5b86db0b5208817561e19a67743ef56,PennController,14,0,block1,NULL,Controller-DashedSentence,DashedSentence,5,die,1688680597920,131,257,1,6,K,Hat der Professor die Haushaltshilfe in den Feierabend entlassen?,manipulation,31,false,Dann entließ der Professor die Haushaltshilfe in den Feierabend und dabei berichtigte er schmunzelnd ihre Aussprache.,Any addtional parameters were appended as additional columns
1688681068,e5b86db0b5208817561e19a67743ef56,PennController,14,0,block1,NULL,Controller-DashedSentence,DashedSentence,6,Haushaltshilfe,1688680597920,131,257,1,6,K,Hat der Professor die Haushaltshilfe in den Feierabend entlassen?,manipulation,30,false,Dann entließ der Professor die Haushaltshilfe in den Feierabend und dabei berichtigte er schmunzelnd ihre Aussprache.,Any addtional parameters were appended as additional columns
1688681068,e5b86db0b5208817561e19a67743ef56,PennController,14,0,block1,NULL,Controller-DashedSentence,DashedSentence,7,in,1688680597920,131,257,1,6,K,Hat der Professor die Haushaltshilfe in den Feierabend entlassen?,manipulation,30,false,Dann entließ der Professor die Haushaltshilfe in den Feierabend und dabei berichtigte er schmunzelnd ihre Aussprache.,Any addtional parameters were appended as additional columns
1688681068,e5b86db0b5208817561e19a67743ef56,PennController,14,0,block1,NULL,Controller-DashedSentence,DashedSentence,8,den,1688680597920,131,257,1,6,K,Hat der Professor die Haushaltshilfe in den Feierabend entlassen?,manipulation,30,false,Dann entließ der Professor die Haushaltshilfe in den Feierabend und dabei berichtigte er schmunzelnd ihre Aussprache.,Any addtional parameters were appended as additional columns
1688681068,e5b86db0b5208817561e19a67743ef56,PennController,14,0,block1,NULL,Controller-DashedSentence,DashedSentence,9,Feierabend,1688680597920,131,257,1,6,K,Hat der Professor die Haushaltshilfe in den Feierabend entlassen?,manipulation,29,false,Dann entließ der Professor die Haushaltshilfe in den Feierabend und dabei berichtigte er schmunzelnd ihre Aussprache.,Any addtional parameters were appended as additional columns
1688681068,e5b86db0b5208817561e19a67743ef56,PennController,14,0,block1,NULL,Controller-DashedSentence,DashedSentence,10,und,1688680597920,131,257,1,6,K,Hat der Professor die Haushaltshilfe in den Feierabend entlassen?,manipulation,32,false,Dann entließ der Professor die Haushaltshilfe in den Feierabend und dabei berichtigte er schmunzelnd ihre Aussprache.,Any addtional parameters were appended as additional columns
1688681068,e5b86db0b5208817561e19a67743ef56,PennController,14,0,block1,NULL,Controller-DashedSentence,DashedSentence,11,dabei,1688680597920,131,257,1,6,K,Hat der Professor die Haushaltshilfe in den Feierabend entlassen?,manipulation,30,false,Dann entließ der Professor die Haushaltshilfe in den Feierabend und dabei berichtigte er schmunzelnd ihre Aussprache.,Any addtional parameters were appended as additional columns
1688681068,e5b86db0b5208817561e19a67743ef56,PennController,14,0,block1,NULL,Controller-DashedSentence,DashedSentence,12,berichtigte,1688680597920,131,257,1,6,K,Hat der Professor die Haushaltshilfe in den Feierabend entlassen?,manipulation,30,false,Dann entließ der Professor die Haushaltshilfe in den Feierabend und dabei berichtigte er schmunzelnd ihre Aussprache.,Any addtional parameters were appended as additional columns
1688681068,e5b86db0b5208817561e19a67743ef56,PennController,14,0,block1,NULL,Controller-DashedSentence,DashedSentence,13,er,1688680597920,131,257,1,6,K,Hat der Professor die Haushaltshilfe in den Feierabend entlassen?,manipulation,30,false,Dann entließ der Professor die Haushaltshilfe in den Feierabend und dabei berichtigte er schmunzelnd ihre Aussprache.,Any addtional parameters were appended as additional columns
1688681068,e5b86db0b5208817561e19a67743ef56,PennController,14,0,block1,NULL,Controller-DashedSentence,DashedSentence,14,schmunzelnd,1688680597920,131,257,1,6,K,Hat der Professor die Haushaltshilfe in den Feierabend entlassen?,manipulation,30,false,Dann entließ der Professor die Haushaltshilfe in den Feierabend und dabei berichtigte er schmunzelnd ihre Aussprache.,Any addtional parameters were appended as additional columns
1688681068,e5b86db0b5208817561e19a67743ef56,PennController,14,0,block1,NULL,Controller-DashedSentence,DashedSentence,15,ihre,1688680597920,131,257,1,6,K,Hat der Professor die Haushaltshilfe in den Feierabend entlassen?,manipulation,30,false,Dann entließ der Professor die Haushaltshilfe in den Feierabend und dabei berichtigte er schmunzelnd ihre Aussprache.,Any addtional parameters were appended as additional columns
1688681068,e5b86db0b5208817561e19a67743ef56,PennController,14,0,block1,NULL,Controller-DashedSentence,DashedSentence,16,Aussprache.,1688680597920,131,257,1,6,K,Hat der Professor die Haushaltshilfe in den Feierabend entlassen?,manipulation,30,false,Dann entließ der Professor die Haushaltshilfe in den Feierabend und dabei berichtigte er schmunzelnd ihre Aussprache.,Any addtional parameters were appended as additional columns
# 20. Comments.
1688681068,e5b86db0b5208817561e19a67743ef56,PennController,14,0,block1,NULL,Controller-AcceptabilityJudgment,block1_accept,,NULL,1688680602511,131,257,1,6,K,Hat der Professor die Haushaltshilfe in den Feierabend entlassen?,manipulation,Any addtional parameters were appended as additional columns
# 20. Whether or not answer was correct (NULL if N/A).
# 21. Time taken to answer..
# 22. Comments.
1688681068,e5b86db0b5208817561e19a67743ef56,PennController,14,0,block1,NULL,Controller-AcceptabilityJudgment,block1_accept,NULL,1,1688680602511,131,257,1,6,K,Hat der Professor die Haushaltshilfe in den Feierabend entlassen?,manipulation,NULL,4589,Any addtional parameters were appended as additional columns
# 20. Comments.
1688681068,e5b86db0b5208817561e19a67743ef56,PennController,14,0,block1,NULL,Canvas,ComprehensionQuestion,Print,NA,1688680602513,131,257,1,6,K,Hat der Professor die Haushaltshilfe in den Feierabend entlassen?,manipulation,NULL
1688681068,e5b86db0b5208817561e19a67743ef56,PennController,14,0,block1,NULL,Key,ComprehensionDecide,PressedKey,D,1688680603898,131,257,1,6,K,Hat der Professor die Haushaltshilfe in den Feierabend entlassen?,manipulation,Wait success
1688681068,e5b86db0b5208817561e19a67743ef56,PennController,14,0,block1,NULL,PennController,17,_Trial_,End,1688680603901,131,257,1,6,K,Hat der Professor die Haushaltshilfe in den Feierabend entlassen?,manipulation,NULL
1688681068,e5b86db0b5208817561e19a67743ef56,PennController,15,0,block1,NULL,PennController,18,_Trial_,Start,1688680603907,24,152,1,6,,,,NULL
1688681068,e5b86db0b5208817561e19a67743ef56,PennController,15,0,block1,NULL,PennController,18,_Header_,Start,1688680603907,24,152,1,6,,,,NULL
1688681068,e5b86db0b5208817561e19a67743ef56,PennController,15,0,block1,NULL,PennController,18,_Header_,End,1688680603908,24,152,1,6,,,,NULL
# 20. Reading time.
# 21. Newline?.
# 22. Sentence (or sentence MD5).
# 23. Comments.
1688681068,e5b86db0b5208817561e19a67743ef56,PennController,15,0,block1,NULL,Controller-DashedSentence,DashedSentence,1,Danach,1688680608315,24,152,1,6,,,,160,false,Danach entdeckte der Juror den Sportler und außerdem lobte er dessen Sohn in höchsten Tönen.,Any addtional parameters were appended as additional columns
1688681068,e5b86db0b5208817561e19a67743ef56,PennController,15,0,block1,NULL,Controller-DashedSentence,DashedSentence,2,entdeckte,1688680608315,24,152,1,6,,,,260,false,Danach entdeckte der Juror den Sportler und außerdem lobte er dessen Sohn in höchsten Tönen.,Any addtional parameters were appended as additional columns
1688681068,e5b86db0b5208817561e19a67743ef56,PennController,15,0,block1,NULL,Controller-DashedSentence,DashedSentence,3,der,1688680608315,24,152,1,6,,,,500,false,Danach entdeckte der Juror den Sportler und außerdem lobte er dessen Sohn in höchsten Tönen.,Any addtional parameters were appended as additional columns
1688681068,e5b86db0b5208817561e19a67743ef56,PennController,15,0,block1,NULL,Controller-DashedSentence,DashedSentence,4,Juror,1688680608315,24,152,1,6,,,,32,false,Danach entdeckte der Juror den Sportler und außerdem lobte er dessen Sohn in höchsten Tönen.,Any addtional parameters were appended as additional columns
1688681068,e5b86db0b5208817561e19a67743ef56,PennController,15,0,block1,NULL,Controller-DashedSentence,DashedSentence,5,den,1688680608315,24,152,1,6,,,,31,false,Danach entdeckte der Juror den Sportler und außerdem lobte er dessen Sohn in höchsten Tönen.,Any addtional parameters were appended as additional columns
1688681068,e5b86db0b5208817561e19a67743ef56,PennController,15,0,block1,NULL,Controller-DashedSentence,DashedSentence,6,Sportler,1688680608315,24,152,1,6,,,,30,false,Danach entdeckte der Juror den Sportler und außerdem lobte er dessen Sohn in höchsten Tönen.,Any addtional parameters were appended as additional columns
1688681068,e5b86db0b5208817561e19a67743ef56,PennController,15,0,block1,NULL,Controller-DashedSentence,DashedSentence,7,und,1688680608315,24,152,1,6,,,,31,false,Danach entdeckte der Juror den Sportler und außerdem lobte er dessen Sohn in höchsten Tönen.,Any addtional parameters were appended as additional columns
1688681068,e5b86db0b5208817561e19a67743ef56,PennController,15,0,block1,NULL,Controller-DashedSentence,DashedSentence,8,außerdem,1688680608315,24,152,1,6,,,,30,false,Danach entdeckte der Juror den Sportler und außerdem lobte er dessen Sohn in höchsten Tönen.,Any addtional parameters were appended as additional columns
1688681068,e5b86db0b5208817561e19a67743ef56,PennController,15,0,block1,NULL,Controller-DashedSentence,DashedSentence,9,lobte,1688680608315,24,152,1,6,,,,30,false,Danach entdeckte der Juror den Sportler und außerdem lobte er dessen Sohn in höchsten Tönen.,Any addtional parameters were appended as additional columns
1688681068,e5b86db0b5208817561e19a67743ef56,PennController,15,0,block1,NULL,Controller-DashedSentence,DashedSentence,10,er,1688680608315,24,152,1,6,,,,30,false,Danach entdeckte der Juror den Sportler und außerdem lobte er dessen Sohn in höchsten Tönen.,Any addtional parameters were appended as additional columns
1688681068,e5b86db0b5208817561e19a67743ef56,PennController,15,0,block1,NULL,Controller-DashedSentence,DashedSentence,11,dessen,1688680608315,24,152,1,6,,,,31,false,Danach entdeckte der Juror den Sportler und außerdem lobte er dessen Sohn in höchsten Tönen.,Any addtional parameters were appended as additional columns
1688681068,e5b86db0b5208817561e19a67743ef56,PennController,15,0,block1,NULL,Controller-DashedSentence,DashedSentence,12,Sohn,1688680608315,24,152,1,6,,,,31,false,Danach entdeckte der Juror den Sportler und außerdem lobte er dessen Sohn in höchsten Tönen.,Any addtional parameters were appended as additional columns
1688681068,e5b86db0b5208817561e19a67743ef56,PennController,15,0,block1,NULL,Controller-DashedSentence,DashedSentence,13,in,1688680608315,24,152,1,6,,,,29,false,Danach entdeckte der Juror den Sportler und außerdem lobte er dessen Sohn in höchsten Tönen.,Any addtional parameters were appended as additional columns
1688681068,e5b86db0b5208817561e19a67743ef56,PennController,15,0,block1,NULL,Controller-DashedSentence,DashedSentence,14,höchsten,1688680608315,24,152,1,6,,,,32,false,Danach entdeckte der Juror den Sportler und außerdem lobte er dessen Sohn in höchsten Tönen.,Any addtional parameters were appended as additional columns
1688681068,e5b86db0b5208817561e19a67743ef56,PennController,15,0,block1,NULL,Controller-DashedSentence,DashedSentence,15,Tönen.,1688680608315,24,152,1,6,,,,28,false,Danach entdeckte der Juror den Sportler und außerdem lobte er dessen Sohn in höchsten Tönen.,Any addtional parameters were appended as additional columns
# 20. Comments.
1688681068,e5b86db0b5208817561e19a67743ef56,PennController,15,0,block1,NULL,Controller-AcceptabilityJudgment,block1_accept,,NULL,1688680610426,24,152,1,6,,,,Any addtional parameters were appended as additional columns
# 20. Whether or not answer was correct (NULL if N/A).
# 21. Time taken to answer..
# 22. Comments.
1688681068,e5b86db0b5208817561e19a67743ef56,PennController,15,0,block1,NULL,Controller-AcceptabilityJudgment,block1_accept,NULL,1,1688680610426,24,152,1,6,,,,NULL,2108,Any addtional parameters were appended as additional columns
# 20. Comments.
1688681068,e5b86db0b5208817561e19a67743ef56,PennController,15,0,block1,NULL,PennController,18,_Trial_,End,1688680610429,24,152,1,6,,,,NULL
1688681068,e5b86db0b5208817561e19a67743ef56,PennController,16,0,block1,NULL,PennController,19,_Trial_,Start,1688680610432,31,151,1,6,D,Hat der Pfarrer den Ring übergeben?,continuation,NULL
1688681068,e5b86db0b5208817561e19a67743ef56,PennController,16,0,block1,NULL,PennController,19,_Header_,Start,1688680610432,31,151,1,6,D,Hat der Pfarrer den Ring übergeben?,continuation,NULL
1688681068,e5b86db0b5208817561e19a67743ef56,PennController,16,0,block1,NULL,PennController,19,_Header_,End,1688680610432,31,151,1,6,D,Hat der Pfarrer den Ring übergeben?,continuation,NULL
# 20. Reading time.
# 21. Newline?.
# 22. Sentence (or sentence MD5).
# 23. Comments.
1688681068,e5b86db0b5208817561e19a67743ef56,PennController,16,0,block1,NULL,Controller-DashedSentence,DashedSentence,1,Glücklich,1688680614782,31,151,1,6,D,Hat der Pfarrer den Ring übergeben?,continuation,455,false,Glücklich küsste die Braut den Bräutigam und dann übergab der Trauzeuge den Ring.,Any addtional parameters were appended as additional columns
1688681068,e5b86db0b5208817561e19a67743ef56,PennController,16,0,block1,NULL,Controller-DashedSentence,DashedSentence,2,küsste,1688680614782,31,151,1,6,D,Hat der Pfarrer den Ring übergeben?,continuation,501,false,Glücklich küsste die Braut den Bräutigam und dann übergab der Trauzeuge den Ring.,Any addtional parameters were appended as additional columns
1688681068,e5b86db0b5208817561e19a67743ef56,PennController,16,0,block1,NULL,Controller-DashedSentence,DashedSentence,3,die,1688680614782,31,151,1,6,D,Hat der Pfarrer den Ring übergeben?,continuation,255,false,Glücklich küsste die Braut den Bräutigam und dann übergab der Trauzeuge den Ring.,Any addtional parameters were appended as additional columns
1688681068,e5b86db0b5208817561e19a67743ef56,PennController,16,0,block1,NULL,Controller-DashedSentence,DashedSentence,4,Braut,1688680614782,31,151,1,6,D,Hat der Pfarrer den Ring übergeben?,continuation,501,false,Glücklich küsste die Braut den Bräutigam und dann übergab der Trauzeuge den Ring.,Any addtional parameters were appended as additional columns
1688681068,e5b86db0b5208817561e19a67743ef56,PennController,16,0,block1,NULL,Controller-DashedSentence,DashedSentence,5,den,1688680614782,31,151,1,6,D,Hat der Pfarrer den Ring übergeben?,continuation,30,false,Glücklich küsste die Braut den Bräutigam und dann übergab der Trauzeuge den Ring.,Any addtional parameters were appended as additional columns
1688681068,e5b86db0b5208817561e19a67743ef56,PennController,16,0,block1,NULL,Controller-DashedSentence,DashedSentence,6,Bräutigam,1688680614782,31,151,1,6,D,Hat der Pfarrer den Ring übergeben?,continuation,30,false,Glücklich küsste die Braut den Bräutigam und dann übergab der Trauzeuge den Ring.,Any addtional parameters were appended as additional columns
1688681068,e5b86db0b5208817561e19a67743ef56,PennController,16,0,block1,NULL,Controller-DashedSentence,DashedSentence,7,und,1688680614782,31,151,1,6,D,Hat der Pfarrer den Ring übergeben?,continuation,30,false,Glücklich küsste die Braut den Bräutigam und dann übergab der Trauzeuge den Ring.,Any addtional parameters were appended as additional columns
1688681068,e5b86db0b5208817561e19a67743ef56,PennController,16,0,block1,NULL,Controller-DashedSentence,DashedSentence,8,dann,1688680614782,31,151,1,6,D,Hat der Pfarrer den Ring übergeben?,continuation,30,false,Glücklich küsste die Braut den Bräutigam und dann übergab der Trauzeuge den Ring.,Any addtional parameters were appended as additional columns
1688681068,e5b86db0b5208817561e19a67743ef56,PennController,16,0,block1,NULL,Controller-DashedSentence,DashedSentence,9,übergab,1688680614782,31,151,1,6,D,Hat der Pfarrer den Ring übergeben?,continuation,30,false,Glücklich küsste die Braut den Bräutigam und dann übergab der Trauzeuge den Ring.,Any addtional parameters were appended as additional columns
1688681068,e5b86db0b5208817561e19a67743ef56,PennController,16,0,block1,NULL,Controller-DashedSentence,DashedSentence,10,der,1688680614782,31,151,1,6,D,Hat der Pfarrer den Ring übergeben?,continuation,30,false,Glücklich küsste die Braut den Bräutigam und dann übergab der Trauzeuge den Ring.,Any addtional parameters were appended as additional columns
1688681068,e5b86db0b5208817561e19a67743ef56,PennController,16,0,block1,NULL,Controller-DashedSentence,DashedSentence,11,Trauzeuge,1688680614782,31,151,1,6,D,Hat der Pfarrer den Ring übergeben?,continuation,29,false,Glücklich küsste die Braut den Bräutigam und dann übergab der Trauzeuge den Ring.,Any addtional parameters were appended as additional columns
1688681068,e5b86db0b5208817561e19a67743ef56,PennController,16,0,block1,NULL,Controller-DashedSentence,DashedSentence,12,den,1688680614782,31,151,1,6,D,Hat der Pfarrer den Ring übergeben?,continuation,30,false,Glücklich küsste die Braut den Bräutigam und dann übergab der Trauzeuge den Ring.,Any addtional parameters were appended as additional columns
1688681068,e5b86db0b5208817561e19a67743ef56,PennController,16,0,block1,NULL,Controller-DashedSentence,DashedSentence,13,Ring.,1688680614782,31,151,1,6,D,Hat der Pfarrer den Ring übergeben?,continuation,30,false,Glücklich küsste die Braut den Bräutigam und dann übergab der Trauzeuge den Ring.,Any addtional parameters were appended as additional columns
# 20. Comments.
1688681068,e5b86db0b5208817561e19a67743ef56,PennController,16,0,block1,NULL,Controller-AcceptabilityJudgment,block1_accept,,NULL,1688680616045,31,151,1,6,D,Hat der Pfarrer den Ring übergeben?,continuation,Any addtional parameters were appended as additional columns
# 20. Whether or not answer was correct (NULL if N/A).
# 21. Time taken to answer..
# 22. Comments.
1688681068,e5b86db0b5208817561e19a67743ef56,PennController,16,0,block1,NULL,Controller-AcceptabilityJudgment,block1_accept,NULL,1,1688680616045,31,151,1,6,D,Hat der Pfarrer den Ring übergeben?,continuation,NULL,1253,Any addtional parameters were appended as additional columns
# 20. Comments.
1688681068,e5b86db0b5208817561e19a67743ef56,PennController,16,0,block1,NULL,Canvas,ComprehensionQuestion,Print,NA,1688680616051,31,151,1,6,D,Hat der Pfarrer den Ring übergeben?,continuation,NULL
1688681068,e5b86db0b5208817561e19a67743ef56,PennController,16,0,block1,NULL,Key,ComprehensionDecide,PressedKey,D,1688680617214,31,151,1,6,D,Hat der Pfarrer den Ring übergeben?,continuation,Wait success
1688681068,e5b86db0b5208817561e19a67743ef56,PennController,16,0,block1,NULL,PennController,19,_Trial_,End,1688680617220,31,151,1,6,D,Hat der Pfarrer den Ring übergeben?,continuation,NULL
1688681068,e5b86db0b5208817561e19a67743ef56,PennController,17,0,block1,NULL,PennController,20,_Trial_,Start,1688680617226,102,255,1,6,D,Hat die Frau den Bauer getröstet?,manipulation,NULL
1688681068,e5b86db0b5208817561e19a67743ef56,PennController,17,0,block1,NULL,PennController,20,_Header_,Start,1688680617226,102,255,1,6,D,Hat die Frau den Bauer getröstet?,manipulation,NULL
1688681068,e5b86db0b5208817561e19a67743ef56,PennController,17,0,block1,NULL,PennController,20,_Header_,End,1688680617227,102,255,1,6,D,Hat die Frau den Bauer getröstet?,manipulation,NULL
# 20. Reading time.
# 21. Newline?.
# 22. Sentence (or sentence MD5).
# 23. Comments.
1688681068,e5b86db0b5208817561e19a67743ef56,PennController,17,0,block1,NULL,Controller-DashedSentence,DashedSentence,1,Daraufhin,1688680619493,102,255,1,6,D,Hat die Frau den Bauer getröstet?,manipulation,501,false,Daraufhin tröstete der Bauer die Frau und dann nahm er sie in die Arme.,Any addtional parameters were appended as additional columns
1688681068,e5b86db0b5208817561e19a67743ef56,PennController,17,0,block1,NULL,Controller-DashedSentence,DashedSentence,2,tröstete,1688680619493,102,255,1,6,D,Hat die Frau den Bauer getröstet?,manipulation,31,false,Daraufhin tröstete der Bauer die Frau und dann nahm er sie in die Arme.,Any addtional parameters were appended as additional columns
1688681068,e5b86db0b5208817561e19a67743ef56,PennController,17,0,block1,NULL,Controller-DashedSentence,DashedSentence,3,der,1688680619493,102,255,1,6,D,Hat die Frau den Bauer getröstet?,manipulation,30,false,Daraufhin tröstete der Bauer die Frau und dann nahm er sie in die Arme.,Any addtional parameters were appended as additional columns
1688681068,e5b86db0b5208817561e19a67743ef56,PennController,17,0,block1,NULL,Controller-DashedSentence,DashedSentence,4,Bauer,1688680619493,102,255,1,6,D,Hat die Frau den Bauer getröstet?,manipulation,29,false,Daraufhin tröstete der Bauer die Frau und dann nahm er sie in die Arme.,Any addtional parameters were appended as additional columns
1688681068,e5b86db0b5208817561e19a67743ef56,PennController,17,0,block1,NULL,Controller-DashedSentence,DashedSentence,5,die,1688680619493,102,255,1,6,D,Hat die Frau den Bauer getröstet?,manipulation,31,false,Daraufhin tröstete der Bauer die Frau und dann nahm er sie in die Arme.,Any addtional parameters were appended as additional columns
1688681068,e5b86db0b5208817561e19a67743ef56,PennController,17,0,block1,NULL,Controller-DashedSentence,DashedSentence,6,Frau,1688680619493,102,255,1,6,D,Hat die Frau den Bauer getröstet?,manipulation,30,false,Daraufhin tröstete der Bauer die Frau und dann nahm er sie in die Arme.,Any addtional parameters were appended as additional columns
1688681068,e5b86db0b5208817561e19a67743ef56,PennController,17,0,block1,NULL,Controller-DashedSentence,DashedSentence,7,und,1688680619493,102,255,1,6,D,Hat die Frau den Bauer getröstet?,manipulation,30,false,Daraufhin tröstete der Bauer die Frau und dann nahm er sie in die Arme.,Any addtional parameters were appended as additional columns
1688681068,e5b86db0b5208817561e19a67743ef56,PennController,17,0,block1,NULL,Controller-DashedSentence,DashedSentence,8,dann,1688680619493,102,255,1,6,D,Hat die Frau den Bauer getröstet?,manipulation,30,false,Daraufhin tröstete der Bauer die Frau und dann nahm er sie in die Arme.,Any addtional parameters were appended as additional columns
1688681068,e5b86db0b5208817561e19a67743ef56,PennController,17,0,block1,NULL,Controller-DashedSentence,DashedSentence,9,nahm,1688680619493,102,255,1,6,D,Hat die Frau den Bauer getröstet?,manipulation,29,false,Daraufhin tröstete der Bauer die Frau und dann nahm er sie in die Arme.,Any addtional parameters were appended as additional columns
1688681068,e5b86db0b5208817561e19a67743ef56,PennController,17,0,block1,NULL,Controller-DashedSentence,DashedSentence,10,er,1688680619493,102,255,1,6,D,Hat die Frau den Bauer getröstet?,manipulation,31,false,Daraufhin tröstete der Bauer die Frau und dann nahm er sie in die Arme.,Any addtional parameters were appended as additional columns
1688681068,e5b86db0b5208817561e19a67743ef56,PennController,17,0,block1,NULL,Controller-DashedSentence,DashedSentence,11,sie,1688680619493,102,255,1,6,D,Hat die Frau den Bauer getröstet?,manipulation,29,false,Daraufhin tröstete der Bauer die Frau und dann nahm er sie in die Arme.,Any addtional parameters were appended as additional columns
1688681068,e5b86db0b5208817561e19a67743ef56,PennController,17,0,block1,NULL,Controller-DashedSentence,DashedSentence,12,in,1688680619493,102,255,1,6,D,Hat die Frau den Bauer getröstet?,manipulation,30,false,Daraufhin tröstete der Bauer die Frau und dann nahm er sie in die Arme.,Any addtional parameters were appended as additional columns
1688681068,e5b86db0b5208817561e19a67743ef56,PennController,17,0,block1,NULL,Controller-DashedSentence,DashedSentence,13,die,1688680619493,102,255,1,6,D,Hat die Frau den Bauer getröstet?,manipulation,30,false,Daraufhin tröstete der Bauer die Frau und dann nahm er sie in die Arme.,Any addtional parameters were appended as additional columns
1688681068,e5b86db0b5208817561e19a67743ef56,PennController,17,0,block1,NULL,Controller-DashedSentence,DashedSentence,14,Arme.,1688680619493,102,255,1,6,D,Hat die Frau den Bauer getröstet?,manipulation,31,false,Daraufhin tröstete der Bauer die Frau und dann nahm er sie in die Arme.,Any addtional parameters were appended as additional columns
# 20. Comments.
1688681068,e5b86db0b5208817561e19a67743ef56,PennController,17,0,block1,NULL,Controller-AcceptabilityJudgment,block1_accept,,NULL,1688680621796,102,255,1,6,D,Hat die Frau den Bauer getröstet?,manipulation,Any addtional parameters were appended as additional columns
# 20. Whether or not answer was correct (NULL if N/A).
# 21. Time taken to answer..
# 22. Comments.
1688681068,e5b86db0b5208817561e19a67743ef56,PennController,17,0,block1,NULL,Controller-AcceptabilityJudgment,block1_accept,NULL,1,1688680621796,102,255,1,6,D,Hat die Frau den Bauer getröstet?,manipulation,NULL,2299,Any addtional parameters were appended as additional columns
# 20. Comments.
1688681068,e5b86db0b5208817561e19a67743ef56,PennController,17,0,block1,NULL,Canvas,ComprehensionQuestion,Print,NA,1688680621799,102,255,1,6,D,Hat die Frau den Bauer getröstet?,manipulation,NULL
1688681068,e5b86db0b5208817561e19a67743ef56,PennController,17,0,block1,NULL,Key,ComprehensionDecide,PressedKey,D,1688680622991,102,255,1,6,D,Hat die Frau den Bauer getröstet?,manipulation,Wait success
1688681068,e5b86db0b5208817561e19a67743ef56,PennController,17,0,block1,NULL,PennController,20,_Trial_,End,1688680622995,102,255,1,6,D,Hat die Frau den Bauer getröstet?,manipulation,NULL
1688681068,e5b86db0b5208817561e19a67743ef56,PennController,18,0,block1,NULL,PennController,21,_Trial_,Start,1688680623003,134,257,1,6,,,,NULL
1688681068,e5b86db0b5208817561e19a67743ef56,PennController,18,0,block1,NULL,PennController,21,_Header_,Start,1688680623003,134,257,1,6,,,,NULL
1688681068,e5b86db0b5208817561e19a67743ef56,PennController,18,0,block1,NULL,PennController,21,_Header_,End,1688680623003,134,257,1,6,,,,NULL
# 20. Reading time.
# 21. Newline?.
# 22. Sentence (or sentence MD5).
# 23. Comments.
1688681068,e5b86db0b5208817561e19a67743ef56,PennController,18,0,block1,NULL,Controller-DashedSentence,DashedSentence,1,Dann,1688680627977,134,257,1,6,,,,243,false,Dann begrüßte der Schaffner die Bänkerin und des Weiteren wünschte er eine gute Weiterfahrt.,Any addtional parameters were appended as additional columns
1688681068,e5b86db0b5208817561e19a67743ef56,PennController,18,0,block1,NULL,Controller-DashedSentence,DashedSentence,2,begrüßte,1688680627977,134,257,1,6,,,,160,false,Dann begrüßte der Schaffner die Bänkerin und des Weiteren wünschte er eine gute Weiterfahrt.,Any addtional parameters were appended as additional columns
1688681068,e5b86db0b5208817561e19a67743ef56,PennController,18,0,block1,NULL,Controller-DashedSentence,DashedSentence,3,der,1688680627977,134,257,1,6,,,,221,false,Dann begrüßte der Schaffner die Bänkerin und des Weiteren wünschte er eine gute Weiterfahrt.,Any addtional parameters were appended as additional columns
1688681068,e5b86db0b5208817561e19a67743ef56,PennController,18,0,block1,NULL,Controller-DashedSentence,DashedSentence,4,Schaffner,1688680627977,134,257,1,6,,,,500,false,Dann begrüßte der Schaffner die Bänkerin und des Weiteren wünschte er eine gute Weiterfahrt.,Any addtional parameters were appended as additional columns
1688681068,e5b86db0b5208817561e19a67743ef56,PennController,18,0,block1,NULL,Controller-DashedSentence,DashedSentence,5,die,1688680627977,134,257,1,6,,,,30,false,Dann begrüßte der Schaffner die Bänkerin und des Weiteren wünschte er eine gute Weiterfahrt.,Any addtional parameters were appended as additional columns
1688681068,e5b86db0b5208817561e19a67743ef56,PennController,18,0,block1,NULL,Controller-DashedSentence,DashedSentence,6,Bänkerin,1688680627977,134,257,1,6,,,,30,false,Dann begrüßte der Schaffner die Bänkerin und des Weiteren wünschte er eine gute Weiterfahrt.,Any addtional parameters were appended as additional columns
1688681068,e5b86db0b5208817561e19a67743ef56,PennController,18,0,block1,NULL,Controller-DashedSentence,DashedSentence,7,und,1688680627977,134,257,1,6,,,,30,false,Dann begrüßte der Schaffner die Bänkerin und des Weiteren wünschte er eine gute Weiterfahrt.,Any addtional parameters were appended as additional columns
1688681068,e5b86db0b5208817561e19a67743ef56,PennController,18,0,block1,NULL,Controller-DashedSentence,DashedSentence,8,des,1688680627977,134,257,1,6,,,,30,false,Dann begrüßte der Schaffner die Bänkerin und des Weiteren wünschte er eine gute Weiterfahrt.,Any addtional parameters were appended as additional columns
1688681068,e5b86db0b5208817561e19a67743ef56,PennController,18,0,block1,NULL,Controller-DashedSentence,DashedSentence,9,Weiteren,1688680627977,134,257,1,6,,,,30,false,Dann begrüßte der Schaffner die Bänkerin und des Weiteren wünschte er eine gute Weiterfahrt.,Any addtional parameters were appended as additional columns
1688681068,e5b86db0b5208817561e19a67743ef56,PennController,18,0,block1,NULL,Controller-DashedSentence,DashedSentence,10,wünschte,1688680627977,134,257,1,6,,,,30,false,Dann begrüßte der Schaffner die Bänkerin und des Weiteren wünschte er eine gute Weiterfahrt.,Any addtional parameters were appended as additional columns
1688681068,e5b86db0b5208817561e19a67743ef56,PennController,18,0,block1,NULL,Controller-DashedSentence,DashedSentence,11,er,1688680627977,134,257,1,6,,,,32,false,Dann begrüßte der Schaffner die Bänkerin und des Weiteren wünschte er eine gute Weiterfahrt.,Any addtional parameters were appended as additional columns
1688681068,e5b86db0b5208817561e19a67743ef56,PennController,18,0,block1,NULL,Controller-DashedSentence,DashedSentence,12,eine,1688680627977,134,257,1,6,,,,30,false,Dann begrüßte der Schaffner die Bänkerin und des Weiteren wünschte er eine gute Weiterfahrt.,Any addtional parameters were appended as additional columns
1688681068,e5b86db0b5208817561e19a67743ef56,PennController,18,0,block1,NULL,Controller-DashedSentence,DashedSentence,13,gute,1688680627977,134,257,1,6,,,,30,false,Dann begrüßte der Schaffner die Bänkerin und des Weiteren wünschte er eine gute Weiterfahrt.,Any addtional parameters were appended as additional columns
1688681068,e5b86db0b5208817561e19a67743ef56,PennController,18,0,block1,NULL,Controller-DashedSentence,DashedSentence,14,Weiterfahrt.,1688680627977,134,257,1,6,,,,29,false,Dann begrüßte der Schaffner die Bänkerin und des Weiteren wünschte er eine gute Weiterfahrt.,Any addtional parameters were appended as additional columns
# 20. Comments.
1688681068,e5b86db0b5208817561e19a67743ef56,PennController,18,0,block1,NULL,Controller-AcceptabilityJudgment,block1_accept,,NULL,1688680628978,134,257,1,6,,,,Any addtional parameters were appended as additional columns
# 20. Whether or not answer was correct (NULL if N/A).
# 21. Time taken to answer..
# 22. Comments.
1688681068,e5b86db0b5208817561e19a67743ef56,PennController,18,0,block1,NULL,Controller-AcceptabilityJudgment,block1_accept,NULL,1,1688680628978,134,257,1,6,,,,NULL,996,Any addtional parameters were appended as additional columns
# 20. Comments.
1688681068,e5b86db0b5208817561e19a67743ef56,PennController,18,0,block1,NULL,PennController,21,_Trial_,End,1688680628984,134,257,1,6,,,,NULL
1688681068,e5b86db0b5208817561e19a67743ef56,PennController,19,0,block1,NULL,PennController,22,_Trial_,Start,1688680628990,120,256,1,6,,,,NULL
1688681068,e5b86db0b5208817561e19a67743ef56,PennController,19,0,block1,NULL,PennController,22,_Header_,Start,1688680628990,120,256,1,6,,,,NULL
1688681068,e5b86db0b5208817561e19a67743ef56,PennController,19,0,block1,NULL,PennController,22,_Header_,End,1688680628991,120,256,1,6,,,,NULL
# 20. Reading time.
# 21. Newline?.
# 22. Sentence (or sentence MD5).
# 23. Comments.
1688681068,e5b86db0b5208817561e19a67743ef56,PennController,19,0,block1,NULL,Controller-DashedSentence,DashedSentence,1,Da,1688680636272,120,256,1,6,,,,218,false,Da beglückwünschte der Wanderer den Angler und dann setzte er seinen Spaziergang fort.,Any addtional parameters were appended as additional columns
1688681068,e5b86db0b5208817561e19a67743ef56,PennController,19,0,block1,NULL,Controller-DashedSentence,DashedSentence,2,beglückwünschte,1688680636272,120,256,1,6,,,,193,false,Da beglückwünschte der Wanderer den Angler und dann setzte er seinen Spaziergang fort.,Any addtional parameters were appended as additional columns
1688681068,e5b86db0b5208817561e19a67743ef56,PennController,19,0,block1,NULL,Controller-DashedSentence,DashedSentence,3,der,1688680636272,120,256,1,6,,,,194,false,Da beglückwünschte der Wanderer den Angler und dann setzte er seinen Spaziergang fort.,Any addtional parameters were appended as additional columns
1688681068,e5b86db0b5208817561e19a67743ef56,PennController,19,0,block1,NULL,Controller-DashedSentence,DashedSentence,4,Wanderer,1688680636272,120,256,1,6,,,,205,false,Da beglückwünschte der Wanderer den Angler und dann setzte er seinen Spaziergang fort.,Any addtional parameters were appended as additional columns
1688681068,e5b86db0b5208817561e19a67743ef56,PennController,19,0,block1,NULL,Controller-DashedSentence,DashedSentence,5,den,1688680636272,120,256,1,6,,,,210,false,Da beglückwünschte der Wanderer den Angler und dann setzte er seinen Spaziergang fort.,Any addtional parameters were appended as additional columns
1688681068,e5b86db0b5208817561e19a67743ef56,PennController,19,0,block1,NULL,Controller-DashedSentence,DashedSentence,6,Angler,1688680636272,120,256,1,6,,,,273,false,Da beglückwünschte der Wanderer den Angler und dann setzte er seinen Spaziergang fort.,Any addtional parameters were appended as additional columns
1688681068,e5b86db0b5208817561e19a67743ef56,PennController,19,0,block1,NULL,Controller-DashedSentence,DashedSentence,7,und,1688680636272,120,256,1,6,,,,223,false,Da beglückwünschte der Wanderer den Angler und dann setzte er seinen Spaziergang fort.,Any addtional parameters were appended as additional columns
1688681068,e5b86db0b5208817561e19a67743ef56,PennController,19,0,block1,NULL,Controller-DashedSentence,DashedSentence,8,dann,1688680636272,120,256,1,6,,,,174,false,Da beglückwünschte der Wanderer den Angler und dann setzte er seinen Spaziergang fort.,Any addtional parameters were appended as additional columns
1688681068,e5b86db0b5208817561e19a67743ef56,PennController,19,0,block1,NULL,Controller-DashedSentence,DashedSentence,9,setzte,1688680636272,120,256,1,6,,,,213,false,Da beglückwünschte der Wanderer den Angler und dann setzte er seinen Spaziergang fort.,Any addtional parameters were appended as additional columns
1688681068,e5b86db0b5208817561e19a67743ef56,PennController,19,0,block1,NULL,Controller-DashedSentence,DashedSentence,10,er,1688680636272,120,256,1,6,,,,214,false,Da beglückwünschte der Wanderer den Angler und dann setzte er seinen Spaziergang fort.,Any addtional parameters were appended as additional columns
1688681068,e5b86db0b5208817561e19a67743ef56,PennController,19,0,block1,NULL,Controller-DashedSentence,DashedSentence,11,seinen,1688680636272,120,256,1,6,,,,232,false,Da beglückwünschte der Wanderer den Angler und dann setzte er seinen Spaziergang fort.,Any addtional parameters were appended as additional columns
1688681068,e5b86db0b5208817561e19a67743ef56,PennController,19,0,block1,NULL,Controller-DashedSentence,DashedSentence,12,Spaziergang,1688680636272,120,256,1,6,,,,204,false,Da beglückwünschte der Wanderer den Angler und dann setzte er seinen Spaziergang fort.,Any addtional parameters were appended as additional columns
1688681068,e5b86db0b5208817561e19a67743ef56,PennController,19,0,block1,NULL,Controller-DashedSentence,DashedSentence,13,fort.,1688680636272,120,256,1,6,,,,2535,false,Da beglückwünschte der Wanderer den Angler und dann setzte er seinen Spaziergang fort.,Any addtional parameters were appended as additional columns
# 20. Comments.
1688681068,e5b86db0b5208817561e19a67743ef56,PennController,19,0,block1,NULL,Controller-AcceptabilityJudgment,block1_accept,,NULL,1688680638085,120,256,1,6,,,,Any addtional parameters were appended as additional columns
# 20. Whether or not answer was correct (NULL if N/A).
# 21. Time taken to answer..
# 22. Comments.
1688681068,e5b86db0b5208817561e19a67743ef56,PennController,19,0,block1,NULL,Controller-AcceptabilityJudgment,block1_accept,NULL,1,1688680638085,120,256,1,6,,,,NULL,1810,Any addtional parameters were appended as additional columns
# 20. Comments.
1688681068,e5b86db0b5208817561e19a67743ef56,PennController,19,0,block1,NULL,PennController,22,_Trial_,End,1688680638089,120,256,1,6,,,,NULL
1688681068,e5b86db0b5208817561e19a67743ef56,PennController,20,0,block1,NULL,PennController,23,_Trial_,Start,1688680638096,116,256,1,7,K,Hat der Prinz die Prinzessin befreit?,continuation,NULL
1688681068,e5b86db0b5208817561e19a67743ef56,PennController,20,0,block1,NULL,PennController,23,_Header_,Start,1688680638096,116,256,1,7,K,Hat der Prinz die Prinzessin befreit?,continuation,NULL
1688681068,e5b86db0b5208817561e19a67743ef56,PennController,20,0,block1,NULL,PennController,23,_Header_,End,1688680638096,116,256,1,7,K,Hat der Prinz die Prinzessin befreit?,continuation,NULL
# 20. Reading time.
# 21. Newline?.
# 22. Sentence (or sentence MD5).
# 23. Comments.
1688681068,e5b86db0b5208817561e19a67743ef56,PennController,20,0,block1,NULL,Controller-DashedSentence,DashedSentence,1,Dort,1688680642520,116,256,1,7,K,Hat der Prinz die Prinzessin befreit?,continuation,189,false,Dort angekommen tötete der Prinz die Fee und anschließend befreite er die Prinzessin.,Any addtional parameters were appended as additional columns
1688681068,e5b86db0b5208817561e19a67743ef56,PennController,20,0,block1,NULL,Controller-DashedSentence,DashedSentence,2,angekommen,1688680642520,116,256,1,7,K,Hat der Prinz die Prinzessin befreit?,continuation,163,false,Dort angekommen tötete der Prinz die Fee und anschließend befreite er die Prinzessin.,Any addtional parameters were appended as additional columns
1688681068,e5b86db0b5208817561e19a67743ef56,PennController,20,0,block1,NULL,Controller-DashedSentence,DashedSentence,3,tötete,1688680642520,116,256,1,7,K,Hat der Prinz die Prinzessin befreit?,continuation,190,false,Dort angekommen tötete der Prinz die Fee und anschließend befreite er die Prinzessin.,Any addtional parameters were appended as additional columns
1688681068,e5b86db0b5208817561e19a67743ef56,PennController,20,0,block1,NULL,Controller-DashedSentence,DashedSentence,4,der,1688680642520,116,256,1,7,K,Hat der Prinz die Prinzessin befreit?,continuation,188,false,Dort angekommen tötete der Prinz die Fee und anschließend befreite er die Prinzessin.,Any addtional parameters were appended as additional columns
1688681068,e5b86db0b5208817561e19a67743ef56,PennController,20,0,block1,NULL,Controller-DashedSentence,DashedSentence,5,Prinz,1688680642520,116,256,1,7,K,Hat der Prinz die Prinzessin befreit?,continuation,199,false,Dort angekommen tötete der Prinz die Fee und anschließend befreite er die Prinzessin.,Any addtional parameters were appended as additional columns
1688681068,e5b86db0b5208817561e19a67743ef56,PennController,20,0,block1,NULL,Controller-DashedSentence,DashedSentence,6,die,1688680642520,116,256,1,7,K,Hat der Prinz die Prinzessin befreit?,continuation,173,false,Dort angekommen tötete der Prinz die Fee und anschließend befreite er die Prinzessin.,Any addtional parameters were appended as additional columns
1688681068,e5b86db0b5208817561e19a67743ef56,PennController,20,0,block1,NULL,Controller-DashedSentence,DashedSentence,7,Fee,1688680642520,116,256,1,7,K,Hat der Prinz die Prinzessin befreit?,continuation,202,false,Dort angekommen tötete der Prinz die Fee und anschließend befreite er die Prinzessin.,Any addtional parameters were appended as additional columns
1688681068,e5b86db0b5208817561e19a67743ef56,PennController,20,0,block1,NULL,Controller-DashedSentence,DashedSentence,8,und,1688680642520,116,256,1,7,K,Hat der Prinz die Prinzessin befreit?,continuation,216,false,Dort angekommen tötete der Prinz die Fee und anschließend befreite er die Prinzessin.,Any addtional parameters were appended as additional columns
1688681068,e5b86db0b5208817561e19a67743ef56,PennController,20,0,block1,NULL,Controller-DashedSentence,DashedSentence,9,anschließend,1688680642520,116,256,1,7,K,Hat der Prinz die Prinzessin befreit?,continuation,200,false,Dort angekommen tötete der Prinz die Fee und anschließend befreite er die Prinzessin.,Any addtional parameters were appended as additional columns
1688681068,e5b86db0b5208817561e19a67743ef56,PennController,20,0,block1,NULL,Controller-DashedSentence,DashedSentence,10,befreite,1688680642520,116,256,1,7,K,Hat der Prinz die Prinzessin befreit?,continuation,286,false,Dort angekommen tötete der Prinz die Fee und anschließend befreite er die Prinzessin.,Any addtional parameters were appended as additional columns
1688681068,e5b86db0b5208817561e19a67743ef56,PennController,20,0,block1,NULL,Controller-DashedSentence,DashedSentence,11,er,1688680642520,116,256,1,7,K,Hat der Prinz die Prinzessin befreit?,continuation,240,false,Dort angekommen tötete der Prinz die Fee und anschließend befreite er die Prinzessin.,Any addtional parameters were appended as additional columns
1688681068,e5b86db0b5208817561e19a67743ef56,PennController,20,0,block1,NULL,Controller-DashedSentence,DashedSentence,12,die,1688680642520,116,256,1,7,K,Hat der Prinz die Prinzessin befreit?,continuation,207,false,Dort angekommen tötete der Prinz die Fee und anschließend befreite er die Prinzessin.,Any addtional parameters were appended as additional columns
1688681068,e5b86db0b5208817561e19a67743ef56,PennController,20,0,block1,NULL,Controller-DashedSentence,DashedSentence,13,Prinzessin.,1688680642520,116,256,1,7,K,Hat der Prinz die Prinzessin befreit?,continuation,201,false,Dort angekommen tötete der Prinz die Fee und anschließend befreite er die Prinzessin.,Any addtional parameters were appended as additional columns
# 20. Comments.
1688681068,e5b86db0b5208817561e19a67743ef56,PennController,20,0,block1,NULL,Controller-AcceptabilityJudgment,block1_accept,,NULL,1688680643533,116,256,1,7,K,Hat der Prinz die Prinzessin befreit?,continuation,Any addtional parameters were appended as additional columns
# 20. Whether or not answer was correct (NULL if N/A).
# 21. Time taken to answer..
# 22. Comments.
1688681068,e5b86db0b5208817561e19a67743ef56,PennController,20,0,block1,NULL,Controller-AcceptabilityJudgment,block1_accept,NULL,1,1688680643533,116,256,1,7,K,Hat der Prinz die Prinzessin befreit?,continuation,NULL,1009,Any addtional parameters were appended as additional columns
# 20. Comments.
1688681068,e5b86db0b5208817561e19a67743ef56,PennController,20,0,block1,NULL,Canvas,ComprehensionQuestion,Print,NA,1688680643536,116,256,1,7,K,Hat der Prinz die Prinzessin befreit?,continuation,NULL
1688681068,e5b86db0b5208817561e19a67743ef56,PennController,20,0,block1,NULL,Key,ComprehensionDecide,PressedKey,D,1688680644519,116,256,1,7,K,Hat der Prinz die Prinzessin befreit?,continuation,Wait success
1688681068,e5b86db0b5208817561e19a67743ef56,PennController,20,0,block1,NULL,PennController,23,_Trial_,End,1688680644522,116,256,1,7,K,Hat der Prinz die Prinzessin befreit?,continuation,NULL
1688681068,e5b86db0b5208817561e19a67743ef56,PennController,21,0,block1,NULL,PennController,24,_Trial_,Start,1688680644528,133,257,1,6,,,,NULL
1688681068,e5b86db0b5208817561e19a67743ef56,PennController,21,0,block1,NULL,PennController,24,_Header_,Start,1688680644528,133,257,1,6,,,,NULL
1688681068,e5b86db0b5208817561e19a67743ef56,PennController,21,0,block1,NULL,PennController,24,_Header_,End,1688680644529,133,257,1,6,,,,NULL
# 20. Reading time.
# 21. Newline?.
# 22. Sentence (or sentence MD5).
# 23. Comments.
1688681068,e5b86db0b5208817561e19a67743ef56,PennController,21,0,block1,NULL,Controller-DashedSentence,DashedSentence,1,Daraufhin,1688680649265,133,257,1,6,,,,187,false,Daraufhin umarmte der Onkel die Nichte und danach drückte er ihr ein Glas Sekt in die Hand.,Any addtional parameters were appended as additional columns
1688681068,e5b86db0b5208817561e19a67743ef56,PennController,21,0,block1,NULL,Controller-DashedSentence,DashedSentence,2,umarmte,1688680649265,133,257,1,6,,,,187,false,Daraufhin umarmte der Onkel die Nichte und danach drückte er ihr ein Glas Sekt in die Hand.,Any addtional parameters were appended as additional columns
1688681068,e5b86db0b5208817561e19a67743ef56,PennController,21,0,block1,NULL,Controller-DashedSentence,DashedSentence,3,der,1688680649265,133,257,1,6,,,,168,false,Daraufhin umarmte der Onkel die Nichte und danach drückte er ihr ein Glas Sekt in die Hand.,Any addtional parameters were appended as additional columns
1688681068,e5b86db0b5208817561e19a67743ef56,PennController,21,0,block1,NULL,Controller-DashedSentence,DashedSentence,4,Onkel,1688680649265,133,257,1,6,,,,181,false,Daraufhin umarmte der Onkel die Nichte und danach drückte er ihr ein Glas Sekt in die Hand.,Any addtional parameters were appended as additional columns
1688681068,e5b86db0b5208817561e19a67743ef56,PennController,21,0,block1,NULL,Controller-DashedSentence,DashedSentence,5,die,1688680649265,133,257,1,6,,,,180,false,Daraufhin umarmte der Onkel die Nichte und danach drückte er ihr ein Glas Sekt in die Hand.,Any addtional parameters were appended as additional columns
1688681068,e5b86db0b5208817561e19a67743ef56,PennController,21,0,block1,NULL,Controller-DashedSentence,DashedSentence,6,Nichte,1688680649265,133,257,1,6,,,,189,false,Daraufhin umarmte der Onkel die Nichte und danach drückte er ihr ein Glas Sekt in die Hand.,Any addtional parameters were appended as additional columns
1688681068,e5b86db0b5208817561e19a67743ef56,PennController,21,0,block1,NULL,Controller-DashedSentence,DashedSentence,7,und,1688680649265,133,257,1,6,,,,193,false,Daraufhin umarmte der Onkel die Nichte und danach drückte er ihr ein Glas Sekt in die Hand.,Any addtional parameters were appended as additional columns
1688681068,e5b86db0b5208817561e19a67743ef56,PennController,21,0,block1,NULL,Controller-DashedSentence,DashedSentence,8,danach,1688680649265,133,257,1,6,,,,185,false,Daraufhin umarmte der Onkel die Nichte und danach drückte er ihr ein Glas Sekt in die Hand.,Any addtional parameters were appended as additional columns
1688681068,e5b86db0b5208817561e19a67743ef56,PennController,21,0,block1,NULL,Controller-DashedSentence,DashedSentence,9,drückte,1688680649265,133,257,1,6,,,,195,false,Daraufhin umarmte der Onkel die Nichte und danach drückte er ihr ein Glas Sekt in die Hand.,Any addtional parameters were appended as additional columns
1688681068,e5b86db0b5208817561e19a67743ef56,PennController,21,0,block1,NULL,Controller-DashedSentence,DashedSentence,10,er,1688680649265,133,257,1,6,,,,178,false,Daraufhin umarmte der Onkel die Nichte und danach drückte er ihr ein Glas Sekt in die Hand.,Any addtional parameters were appended as additional columns
1688681068,e5b86db0b5208817561e19a67743ef56,PennController,21,0,block1,NULL,Controller-DashedSentence,DashedSentence,11,ihr,1688680649265,133,257,1,6,,,,182,false,Daraufhin umarmte der Onkel die Nichte und danach drückte er ihr ein Glas Sekt in die Hand.,Any addtional parameters were appended as additional columns
1688681068,e5b86db0b5208817561e19a67743ef56,PennController,21,0,block1,NULL,Controller-DashedSentence,DashedSentence,12,ein,1688680649265,133,257,1,6,,,,194,false,Daraufhin umarmte der Onkel die Nichte und danach drückte er ihr ein Glas Sekt in die Hand.,Any addtional parameters were appended as additional columns
1688681068,e5b86db0b5208817561e19a67743ef56,PennController,21,0,block1,NULL,Controller-DashedSentence,DashedSentence,13,Glas,1688680649265,133,257,1,6,,,,192,false,Daraufhin umarmte der Onkel die Nichte und danach drückte er ihr ein Glas Sekt in die Hand.,Any addtional parameters were appended as additional columns
1688681068,e5b86db0b5208817561e19a67743ef56,PennController,21,0,block1,NULL,Controller-DashedSentence,DashedSentence,14,Sekt,1688680649265,133,257,1,6,,,,175,false,Daraufhin umarmte der Onkel die Nichte und danach drückte er ihr ein Glas Sekt in die Hand.,Any addtional parameters were appended as additional columns
1688681068,e5b86db0b5208817561e19a67743ef56,PennController,21,0,block1,NULL,Controller-DashedSentence,DashedSentence,15,in,1688680649265,133,257,1,6,,,,219,false,Daraufhin umarmte der Onkel die Nichte und danach drückte er ihr ein Glas Sekt in die Hand.,Any addtional parameters were appended as additional columns
1688681068,e5b86db0b5208817561e19a67743ef56,PennController,21,0,block1,NULL,Controller-DashedSentence,DashedSentence,16,die,1688680649265,133,257,1,6,,,,261,false,Daraufhin umarmte der Onkel die Nichte und danach drückte er ihr ein Glas Sekt in die Hand.,Any addtional parameters were appended as additional columns
1688681068,e5b86db0b5208817561e19a67743ef56,PennController,21,0,block1,NULL,Controller-DashedSentence,DashedSentence,17,Hand.,1688680649265,133,257,1,6,,,,182,false,Daraufhin umarmte der Onkel die Nichte und danach drückte er ihr ein Glas Sekt in die Hand.,Any addtional parameters were appended as additional columns
# 20. Comments.
1688681068,e5b86db0b5208817561e19a67743ef56,PennController,21,0,block1,NULL,Controller-AcceptabilityJudgment,block1_accept,,NULL,1688680652090,133,257,1,6,,,,Any addtional parameters were appended as additional columns
# 20. Whether or not answer was correct (NULL if N/A).
# 21. Time taken to answer..
# 22. Comments.
1688681068,e5b86db0b5208817561e19a67743ef56,PennController,21,0,block1,NULL,Controller-AcceptabilityJudgment,block1_accept,NULL,1,1688680652090,133,257,1,6,,,,NULL,2821,Any addtional parameters were appended as additional columns
# 20. Comments.
1688681068,e5b86db0b5208817561e19a67743ef56,PennController,21,0,block1,NULL,PennController,24,_Trial_,End,1688680652093,133,257,1,6,,,,NULL
1688681068,e5b86db0b5208817561e19a67743ef56,PennController,22,0,block1,NULL,PennController,25,_Trial_,Start,1688680652098,34,152,1,6,,,,NULL
1688681068,e5b86db0b5208817561e19a67743ef56,PennController,22,0,block1,NULL,PennController,25,_Header_,Start,1688680652098,34,152,1,6,,,,NULL
1688681068,e5b86db0b5208817561e19a67743ef56,PennController,22,0,block1,NULL,PennController,25,_Header_,End,1688680652098,34,152,1,6,,,,NULL
# 20. Reading time.
# 21. Newline?.
# 22. Sentence (or sentence MD5).
# 23. Comments.
1688681068,e5b86db0b5208817561e19a67743ef56,PennController,22,0,block1,NULL,Controller-DashedSentence,DashedSentence,1,Dann,1688680654476,34,152,1,6,,,,560,false,Dann kaufte der Händler die Sklaven und anschließend ging er weiter zu den Gewürzen.,Any addtional parameters were appended as additional columns
1688681068,e5b86db0b5208817561e19a67743ef56,PennController,22,0,block1,NULL,Controller-DashedSentence,DashedSentence,2,kaufte,1688680654476,34,152,1,6,,,,500,false,Dann kaufte der Händler die Sklaven und anschließend ging er weiter zu den Gewürzen.,Any addtional parameters were appended as additional columns
1688681068,e5b86db0b5208817561e19a67743ef56,PennController,22,0,block1,NULL,Controller-DashedSentence,DashedSentence,3,der,1688680654476,34,152,1,6,,,,30,false,Dann kaufte der Händler die Sklaven und anschließend ging er weiter zu den Gewürzen.,Any addtional parameters were appended as additional columns
1688681068,e5b86db0b5208817561e19a67743ef56,PennController,22,0,block1,NULL,Controller-DashedSentence,DashedSentence,4,Händler,1688680654476,34,152,1,6,,,,30,false,Dann kaufte der Händler die Sklaven und anschließend ging er weiter zu den Gewürzen.,Any addtional parameters were appended as additional columns
1688681068,e5b86db0b5208817561e19a67743ef56,PennController,22,0,block1,NULL,Controller-DashedSentence,DashedSentence,5,die,1688680654476,34,152,1,6,,,,30,false,Dann kaufte der Händler die Sklaven und anschließend ging er weiter zu den Gewürzen.,Any addtional parameters were appended as additional columns
1688681068,e5b86db0b5208817561e19a67743ef56,PennController,22,0,block1,NULL,Controller-DashedSentence,DashedSentence,6,Sklaven,1688680654476,34,152,1,6,,,,31,false,Dann kaufte der Händler die Sklaven und anschließend ging er weiter zu den Gewürzen.,Any addtional parameters were appended as additional columns
1688681068,e5b86db0b5208817561e19a67743ef56,PennController,22,0,block1,NULL,Controller-DashedSentence,DashedSentence,7,und,1688680654476,34,152,1,6,,,,30,false,Dann kaufte der Händler die Sklaven und anschließend ging er weiter zu den Gewürzen.,Any addtional parameters were appended as additional columns
1688681068,e5b86db0b5208817561e19a67743ef56,PennController,22,0,block1,NULL,Controller-DashedSentence,DashedSentence,8,anschließend,1688680654476,34,152,1,6,,,,30,false,Dann kaufte der Händler die Sklaven und anschließend ging er weiter zu den Gewürzen.,Any addtional parameters were appended as additional columns
1688681068,e5b86db0b5208817561e19a67743ef56,PennController,22,0,block1,NULL,Controller-DashedSentence,DashedSentence,9,ging,1688680654476,34,152,1,6,,,,29,false,Dann kaufte der Händler die Sklaven und anschließend ging er weiter zu den Gewürzen.,Any addtional parameters were appended as additional columns
1688681068,e5b86db0b5208817561e19a67743ef56,PennController,22,0,block1,NULL,Controller-DashedSentence,DashedSentence,10,er,1688680654476,34,152,1,6,,,,31,false,Dann kaufte der Händler die Sklaven und anschließend ging er weiter zu den Gewürzen.,Any addtional parameters were appended as additional columns
1688681068,e5b86db0b5208817561e19a67743ef56,PennController,22,0,block1,NULL,Controller-DashedSentence,DashedSentence,11,weiter,1688680654476,34,152,1,6,,,,30,false,Dann kaufte der Händler die Sklaven und anschließend ging er weiter zu den Gewürzen.,Any addtional parameters were appended as additional columns
1688681068,e5b86db0b5208817561e19a67743ef56,PennController,22,0,block1,NULL,Controller-DashedSentence,DashedSentence,12,zu,1688680654476,34,152,1,6,,,,30,false,Dann kaufte der Händler die Sklaven und anschließend ging er weiter zu den Gewürzen.,Any addtional parameters were appended as additional columns
1688681068,e5b86db0b5208817561e19a67743ef56,PennController,22,0,block1,NULL,Controller-DashedSentence,DashedSentence,13,den,1688680654476,34,152,1,6,,,,30,false,Dann kaufte der Händler die Sklaven und anschließend ging er weiter zu den Gewürzen.,Any addtional parameters were appended as additional columns
1688681068,e5b86db0b5208817561e19a67743ef56,PennController,22,0,block1,NULL,Controller-DashedSentence,DashedSentence,14,Gewürzen.,1688680654476,34,152,1,6,,,,29,false,Dann kaufte der Händler die Sklaven und anschließend ging er weiter zu den Gewürzen.,Any addtional parameters were appended as additional columns
# 20. Comments.
1688681068,e5b86db0b5208817561e19a67743ef56,PennController,22,0,block1,NULL,Controller-AcceptabilityJudgment,block1_accept,,NULL,1688680655245,34,152,1,6,,,,Any addtional parameters were appended as additional columns
# 20. Whether or not answer was correct (NULL if N/A).
# 21. Time taken to answer..
# 22. Comments.
1688681068,e5b86db0b5208817561e19a67743ef56,PennController,22,0,block1,NULL,Controller-AcceptabilityJudgment,block1_accept,NULL,1,1688680655245,34,152,1,6,,,,NULL,766,Any addtional parameters were appended as additional columns
# 20. Comments.
1688681068,e5b86db0b5208817561e19a67743ef56,PennController,22,0,block1,NULL,PennController,25,_Trial_,End,1688680655248,34,152,1,6,,,,NULL
1688681068,e5b86db0b5208817561e19a67743ef56,PennController,23,0,block1,NULL,PennController,26,_Trial_,Start,1688680655254,105,255,1,6,,,,NULL
1688681068,e5b86db0b5208817561e19a67743ef56,PennController,23,0,block1,NULL,PennController,26,_Header_,Start,1688680655254,105,255,1,6,,,,NULL
1688681068,e5b86db0b5208817561e19a67743ef56,PennController,23,0,block1,NULL,PennController,26,_Header_,End,1688680655254,105,255,1,6,,,,NULL
# 20. Reading time.
# 21. Newline?.
# 22. Sentence (or sentence MD5).
# 23. Comments.
1688681068,e5b86db0b5208817561e19a67743ef56,PennController,23,0,block1,NULL,Controller-DashedSentence,DashedSentence,1,Daraufhin,1688680657352,105,255,1,6,,,,500,false,Daraufhin beruhigte der Gast die Kellnerin und dann fragte er%2C ob sie den Zahlungsvorgang noch einmal probieren könne.,Any addtional parameters were appended as additional columns
1688681068,e5b86db0b5208817561e19a67743ef56,PennController,23,0,block1,NULL,Controller-DashedSentence,DashedSentence,2,beruhigte,1688680657352,105,255,1,6,,,,31,false,Daraufhin beruhigte der Gast die Kellnerin und dann fragte er%2C ob sie den Zahlungsvorgang noch einmal probieren könne.,Any addtional parameters were appended as additional columns
1688681068,e5b86db0b5208817561e19a67743ef56,PennController,23,0,block1,NULL,Controller-DashedSentence,DashedSentence,3,der,1688680657352,105,255,1,6,,,,30,false,Daraufhin beruhigte der Gast die Kellnerin und dann fragte er%2C ob sie den Zahlungsvorgang noch einmal probieren könne.,Any addtional parameters were appended as additional columns
1688681068,e5b86db0b5208817561e19a67743ef56,PennController,23,0,block1,NULL,Controller-DashedSentence,DashedSentence,4,Gast,1688680657352,105,255,1,6,,,,30,false,Daraufhin beruhigte der Gast die Kellnerin und dann fragte er%2C ob sie den Zahlungsvorgang noch einmal probieren könne.,Any addtional parameters were appended as additional columns
1688681068,e5b86db0b5208817561e19a67743ef56,PennController,23,0,block1,NULL,Controller-DashedSentence,DashedSentence,5,die,1688680657352,105,255,1,6,,,,30,false,Daraufhin beruhigte der Gast die Kellnerin und dann fragte er%2C ob sie den Zahlungsvorgang noch einmal probieren könne.,Any addtional parameters were appended as additional columns
1688681068,e5b86db0b5208817561e19a67743ef56,PennController,23,0,block1,NULL,Controller-DashedSentence,DashedSentence,6,Kellnerin,1688680657352,105,255,1,6,,,,30,false,Daraufhin beruhigte der Gast die Kellnerin und dann fragte er%2C ob sie den Zahlungsvorgang noch einmal probieren könne.,Any addtional parameters were appended as additional columns
1688681068,e5b86db0b5208817561e19a67743ef56,PennController,23,0,block1,NULL,Controller-DashedSentence,DashedSentence,7,und,1688680657352,105,255,1,6,,,,30,false,Daraufhin beruhigte der Gast die Kellnerin und dann fragte er%2C ob sie den Zahlungsvorgang noch einmal probieren könne.,Any addtional parameters were appended as additional columns
1688681068,e5b86db0b5208817561e19a67743ef56,PennController,23,0,block1,NULL,Controller-DashedSentence,DashedSentence,8,dann,1688680657352,105,255,1,6,,,,30,false,Daraufhin beruhigte der Gast die Kellnerin und dann fragte er%2C ob sie den Zahlungsvorgang noch einmal probieren könne.,Any addtional parameters were appended as additional columns
1688681068,e5b86db0b5208817561e19a67743ef56,PennController,23,0,block1,NULL,Controller-DashedSentence,DashedSentence,9,fragte,1688680657352,105,255,1,6,,,,31,false,Daraufhin beruhigte der Gast die Kellnerin und dann fragte er%2C ob sie den Zahlungsvorgang noch einmal probieren könne.,Any addtional parameters were appended as additional columns
1688681068,e5b86db0b5208817561e19a67743ef56,PennController,23,0,block1,NULL,Controller-DashedSentence,DashedSentence,10,er%2C,1688680657352,105,255,1,6,,,,29,false,Daraufhin beruhigte der Gast die Kellnerin und dann fragte er%2C ob sie den Zahlungsvorgang noch einmal probieren könne.,Any addtional parameters were appended as additional columns
1688681068,e5b86db0b5208817561e19a67743ef56,PennController,23,0,block1,NULL,Controller-DashedSentence,DashedSentence,11,ob,1688680657352,105,255,1,6,,,,31,false,Daraufhin beruhigte der Gast die Kellnerin und dann fragte er%2C ob sie den Zahlungsvorgang noch einmal probieren könne.,Any addtional parameters were appended as additional columns
1688681068,e5b86db0b5208817561e19a67743ef56,PennController,23,0,block1,NULL,Controller-DashedSentence,DashedSentence,12,sie,1688680657352,105,255,1,6,,,,31,false,Daraufhin beruhigte der Gast die Kellnerin und dann fragte er%2C ob sie den Zahlungsvorgang noch einmal probieren könne.,Any addtional parameters were appended as additional columns
1688681068,e5b86db0b5208817561e19a67743ef56,PennController,23,0,block1,NULL,Controller-DashedSentence,DashedSentence,13,den,1688680657352,105,255,1,6,,,,29,false,Daraufhin beruhigte der Gast die Kellnerin und dann fragte er%2C ob sie den Zahlungsvorgang noch einmal probieren könne.,Any addtional parameters were appended as additional columns
1688681068,e5b86db0b5208817561e19a67743ef56,PennController,23,0,block1,NULL,Controller-DashedSentence,DashedSentence,14,Zahlungsvorgang,1688680657352,105,255,1,6,,,,31,false,Daraufhin beruhigte der Gast die Kellnerin und dann fragte er%2C ob sie den Zahlungsvorgang noch einmal probieren könne.,Any addtional parameters were appended as additional columns
1688681068,e5b86db0b5208817561e19a67743ef56,PennController,23,0,block1,NULL,Controller-DashedSentence,DashedSentence,15,noch,1688680657352,105,255,1,6,,,,31,false,Daraufhin beruhigte der Gast die Kellnerin und dann fragte er%2C ob sie den Zahlungsvorgang noch einmal probieren könne.,Any addtional parameters were appended as additional columns
1688681068,e5b86db0b5208817561e19a67743ef56,PennController,23,0,block1,NULL,Controller-DashedSentence,DashedSentence,16,einmal,1688680657352,105,255,1,6,,,,30,false,Daraufhin beruhigte der Gast die Kellnerin und dann fragte er%2C ob sie den Zahlungsvorgang noch einmal probieren könne.,Any addtional parameters were appended as additional columns
1688681068,e5b86db0b5208817561e19a67743ef56,PennController,23,0,block1,NULL,Controller-DashedSentence,DashedSentence,17,probieren,1688680657352,105,255,1,6,,,,29,false,Daraufhin beruhigte der Gast die Kellnerin und dann fragte er%2C ob sie den Zahlungsvorgang noch einmal probieren könne.,Any addtional parameters were appended as additional columns
1688681068,e5b86db0b5208817561e19a67743ef56,PennController,23,0,block1,NULL,Controller-DashedSentence,DashedSentence,18,könne.,1688680657352,105,255,1,6,,,,31,false,Daraufhin beruhigte der Gast die Kellnerin und dann fragte er%2C ob sie den Zahlungsvorgang noch einmal probieren könne.,Any addtional parameters were appended as additional columns
# 20. Comments.
1688681068,e5b86db0b5208817561e19a67743ef56,PennController,23,0,block1,NULL,Controller-AcceptabilityJudgment,block1_accept,,NULL,1688680659474,105,255,1,6,,,,Any addtional parameters were appended as additional columns
# 20. Whether or not answer was correct (NULL if N/A).
# 21. Time taken to answer..
# 22. Comments.
1688681068,e5b86db0b5208817561e19a67743ef56,PennController,23,0,block1,NULL,Controller-AcceptabilityJudgment,block1_accept,NULL,1,1688680659474,105,255,1,6,,,,NULL,2119,Any addtional parameters were appended as additional columns
# 20. Comments.
1688681068,e5b86db0b5208817561e19a67743ef56,PennController,23,0,block1,NULL,PennController,26,_Trial_,End,1688680659481,105,255,1,6,,,,NULL
1688681068,e5b86db0b5208817561e19a67743ef56,PennController,24,0,block1,NULL,PennController,27,_Trial_,Start,1688680659487,10,151,1,6,,,,NULL
1688681068,e5b86db0b5208817561e19a67743ef56,PennController,24,0,block1,NULL,PennController,27,_Header_,Start,1688680659487,10,151,1,6,,,,NULL
1688681068,e5b86db0b5208817561e19a67743ef56,PennController,24,0,block1,NULL,PennController,27,_Header_,End,1688680659487,10,151,1,6,,,,NULL
# 20. Reading time.
# 21. Newline?.
# 22. Sentence (or sentence MD5).
# 23. Comments.
1688681068,e5b86db0b5208817561e19a67743ef56,PennController,24,0,block1,NULL,Controller-DashedSentence,DashedSentence,1,Daraufhin,1688680661745,10,151,1,6,,,,501,false,Daraufhin lobte die Hausfrau den Handwerker und noch lange ärgerte sie sich über die Mängel moderner Geräte.,Any addtional parameters were appended as additional columns
1688681068,e5b86db0b5208817561e19a67743ef56,PennController,24,0,block1,NULL,Controller-DashedSentence,DashedSentence,2,lobte,1688680661745,10,151,1,6,,,,30,false,Daraufhin lobte die Hausfrau den Handwerker und noch lange ärgerte sie sich über die Mängel moderner Geräte.,Any addtional parameters were appended as additional columns
1688681068,e5b86db0b5208817561e19a67743ef56,PennController,24,0,block1,NULL,Controller-DashedSentence,DashedSentence,3,die,1688680661745,10,151,1,6,,,,31,false,Daraufhin lobte die Hausfrau den Handwerker und noch lange ärgerte sie sich über die Mängel moderner Geräte.,Any addtional parameters were appended as additional columns
1688681068,e5b86db0b5208817561e19a67743ef56,PennController,24,0,block1,NULL,Controller-DashedSentence,DashedSentence,4,Hausfrau,1688680661745,10,151,1,6,,,,29,false,Daraufhin lobte die Hausfrau den Handwerker und noch lange ärgerte sie sich über die Mängel moderner Geräte.,Any addtional parameters were appended as additional columns
1688681068,e5b86db0b5208817561e19a67743ef56,PennController,24,0,block1,NULL,Controller-DashedSentence,DashedSentence,5,den,1688680661745,10,151,1,6,,,,31,false,Daraufhin lobte die Hausfrau den Handwerker und noch lange ärgerte sie sich über die Mängel moderner Geräte.,Any addtional parameters were appended as additional columns
1688681068,e5b86db0b5208817561e19a67743ef56,PennController,24,0,block1,NULL,Controller-DashedSentence,DashedSentence,6,Handwerker,1688680661745,10,151,1,6,,,,30,false,Daraufhin lobte die Hausfrau den Handwerker und noch lange ärgerte sie sich über die Mängel moderner Geräte.,Any addtional parameters were appended as additional columns
1688681068,e5b86db0b5208817561e19a67743ef56,PennController,24,0,block1,NULL,Controller-DashedSentence,DashedSentence,7,und,1688680661745,10,151,1,6,,,,31,false,Daraufhin lobte die Hausfrau den Handwerker und noch lange ärgerte sie sich über die Mängel moderner Geräte.,Any addtional parameters were appended as additional columns
1688681068,e5b86db0b5208817561e19a67743ef56,PennController,24,0,block1,NULL,Controller-DashedSentence,DashedSentence,8,noch,1688680661745,10,151,1,6,,,,30,false,Daraufhin lobte die Hausfrau den Handwerker und noch lange ärgerte sie sich über die Mängel moderner Geräte.,Any addtional parameters were appended as additional columns
1688681068,e5b86db0b5208817561e19a67743ef56,PennController,24,0,block1,NULL,Controller-DashedSentence,DashedSentence,9,lange,1688680661745,10,151,1,6,,,,29,false,Daraufhin lobte die Hausfrau den Handwerker und noch lange ärgerte sie sich über die Mängel moderner Geräte.,Any addtional parameters were appended as additional columns
1688681068,e5b86db0b5208817561e19a67743ef56,PennController,24,0,block1,NULL,Controller-DashedSentence,DashedSentence,10,ärgerte,1688680661745,10,151,1,6,,,,30,false,Daraufhin lobte die Hausfrau den Handwerker und noch lange ärgerte sie sich über die Mängel moderner Geräte.,Any addtional parameters were appended as additional columns
1688681068,e5b86db0b5208817561e19a67743ef56,PennController,24,0,block1,NULL,Controller-DashedSentence,DashedSentence,11,sie,1688680661745,10,151,1,6,,,,31,false,Daraufhin lobte die Hausfrau den Handwerker und noch lange ärgerte sie sich über die Mängel moderner Geräte.,Any addtional parameters were appended as additional columns
1688681068,e5b86db0b5208817561e19a67743ef56,PennController,24,0,block1,NULL,Controller-DashedSentence,DashedSentence,12,sich,1688680661745,10,151,1,6,,,,31,false,Daraufhin lobte die Hausfrau den Handwerker und noch lange ärgerte sie sich über die Mängel moderner Geräte.,Any addtional parameters were appended as additional columns
1688681068,e5b86db0b5208817561e19a67743ef56,PennController,24,0,block1,NULL,Controller-DashedSentence,DashedSentence,13,über,1688680661745,10,151,1,6,,,,30,false,Daraufhin lobte die Hausfrau den Handwerker und noch lange ärgerte sie sich über die Mängel moderner Geräte.,Any addtional parameters were appended as additional columns
1688681068,e5b86db0b5208817561e19a67743ef56,PennController,24,0,block1,NULL,Controller-DashedSentence,DashedSentence,14,die,1688680661745,10,151,1,6,,,,30,false,Daraufhin lobte die Hausfrau den Handwerker und noch lange ärgerte sie sich über die Mängel moderner Geräte.,Any addtional parameters were appended as additional columns
1688681068,e5b86db0b5208817561e19a67743ef56,PennController,24,0,block1,NULL,Controller-DashedSentence,DashedSentence,15,Mängel,1688680661745,10,151,1,6,,,,30,false,Daraufhin lobte die Hausfrau den Handwerker und noch lange ärgerte sie sich über die Mängel moderner Geräte.,Any addtional parameters were appended as additional columns
