#
# Results on Tue, 16 Nov 2021 14:40:41 GMT
# USER AGENT: Mozilla/5.0 (Windows NT 10.0; Win64; x64; rv:91.0) Gecko/20100101 Firefox/91.0
# Design number was non-random = 0
#
# Columns below this comment are as follows:
# 1. Results reception time.
# 2. MD5 hash of participant's IP address.
# 3. Controller name.
# 4. Order number of item.
# 5. Inner element number.
# 6. Label.
# 7. Latin Square Group.
# 8. PennElementType.
# 9. PennElementName.
# 10. Parameter.
# 11. Value.
# 12. EventTime.
# 13. survey.
# 14. Comments.
1637073641,c6c58a4e2da5ed0040e8e1fbcf513083,1,0,consent,NULL,PennController,0,_Trial_,Start,1637071858064,CAPsurvey,NULL
1637073641,c6c58a4e2da5ed0040e8e1fbcf513083,1,0,consent,NULL,PennController,0,_Header_,Start,1637071858064,CAPsurvey,NULL
1637073641,c6c58a4e2da5ed0040e8e1fbcf513083,1,0,consent,NULL,PennController,0,_Header_,End,1637071858065,CAPsurvey,NULL
1637073641,c6c58a4e2da5ed0040e8e1fbcf513083,1,0,consent,NULL,PennController,0,_Trial_,End,1637071867871,CAPsurvey,NULL
1637073641,c6c58a4e2da5ed0040e8e1fbcf513083,2,0,consent2,NULL,PennController,1,_Trial_,Start,1637071867875,CAPsurvey,NULL
1637073641,c6c58a4e2da5ed0040e8e1fbcf513083,2,0,consent2,NULL,PennController,1,_Header_,Start,1637071867875,CAPsurvey,NULL
1637073641,c6c58a4e2da5ed0040e8e1fbcf513083,2,0,consent2,NULL,PennController,1,_Header_,End,1637071867875,CAPsurvey,NULL
1637073641,c6c58a4e2da5ed0040e8e1fbcf513083,2,0,consent2,NULL,Html,consent2,prolific_id,5e393294e3ba5a12d3dbf46c,1637071879670,CAPsurvey,text input
1637073641,c6c58a4e2da5ed0040e8e1fbcf513083,2,0,consent2,NULL,Html,consent2,consent_checkbox,checked,1637071879670,CAPsurvey,checkbox
1637073641,c6c58a4e2da5ed0040e8e1fbcf513083,2,0,consent2,NULL,PennController,1,_Trial_,End,1637071879671,CAPsurvey,NULL
1637073641,c6c58a4e2da5ed0040e8e1fbcf513083,3,0,demographics,NULL,PennController,2,_Trial_,Start,1637071879674,CAPsurvey,NULL
1637073641,c6c58a4e2da5ed0040e8e1fbcf513083,3,0,demographics,NULL,PennController,2,_Header_,Start,1637071879674,CAPsurvey,NULL
1637073641,c6c58a4e2da5ed0040e8e1fbcf513083,3,0,demographics,NULL,PennController,2,_Header_,End,1637071879674,CAPsurvey,NULL
1637073641,c6c58a4e2da5ed0040e8e1fbcf513083,3,0,demographics,NULL,Html,demographics,Native_language,Deutsch,1637071910751,CAPsurvey,text input
1637073641,c6c58a4e2da5ed0040e8e1fbcf513083,3,0,demographics,NULL,Html,demographics,L1,Englisch,1637071910751,CAPsurvey,text input
1637073641,c6c58a4e2da5ed0040e8e1fbcf513083,3,0,demographics,NULL,Html,demographics,L1_age,7,1637071910751,CAPsurvey,text input
1637073641,c6c58a4e2da5ed0040e8e1fbcf513083,3,0,demographics,NULL,Html,demographics,L2,Latein,1637071910751,CAPsurvey,text input
1637073641,c6c58a4e2da5ed0040e8e1fbcf513083,3,0,demographics,NULL,Html,demographics,L2_age,14,1637071910751,CAPsurvey,text input
1637073641,c6c58a4e2da5ed0040e8e1fbcf513083,3,0,demographics,NULL,Html,demographics,L3,,1637071910751,CAPsurvey,text input
1637073641,c6c58a4e2da5ed0040e8e1fbcf513083,3,0,demographics,NULL,Html,demographics,L3_age,,1637071910751,CAPsurvey,text input
1637073641,c6c58a4e2da5ed0040e8e1fbcf513083,3,0,demographics,NULL,Html,demographics,Age,28,1637071910751,CAPsurvey,text input
1637073641,c6c58a4e2da5ed0040e8e1fbcf513083,3,0,demographics,NULL,Html,demographics,L1_level,fluent,1637071910751,CAPsurvey,radio button
1637073641,c6c58a4e2da5ed0040e8e1fbcf513083,3,0,demographics,NULL,Html,demographics,L2_level,intermediate,1637071910751,CAPsurvey,radio button
1637073641,c6c58a4e2da5ed0040e8e1fbcf513083,3,0,demographics,NULL,Html,demographics,gender,male,1637071910751,CAPsurvey,radio button
1637073641,c6c58a4e2da5ed0040e8e1fbcf513083,3,0,demographics,NULL,Html,demographics,handedness,righthanded,1637071910751,CAPsurvey,radio button
1637073641,c6c58a4e2da5ed0040e8e1fbcf513083,3,0,demographics,NULL,PennController,2,_Trial_,End,1637071910751,CAPsurvey,NULL
1637073641,c6c58a4e2da5ed0040e8e1fbcf513083,4,0,instructions,NULL,PennController,3,_Trial_,Start,1637071910754,CAPsurvey,NULL
1637073641,c6c58a4e2da5ed0040e8e1fbcf513083,4,0,instructions,NULL,PennController,3,_Header_,Start,1637071910754,CAPsurvey,NULL
1637073641,c6c58a4e2da5ed0040e8e1fbcf513083,4,0,instructions,NULL,PennController,3,_Header_,End,1637071910754,CAPsurvey,NULL
1637073641,c6c58a4e2da5ed0040e8e1fbcf513083,4,0,instructions,NULL,Canvas,Canvas,Print,NA,1637071910756,CAPsurvey,NULL
1637073641,c6c58a4e2da5ed0040e8e1fbcf513083,4,0,instructions,NULL,PennController,3,_Trial_,End,1637071966839,CAPsurvey,NULL
# 13. Item.
# 14. Condition.
# 15. List.
# 16. Critical.
# 17. QuestionCorrect.
# 18. QuestionText.
# 19. QuestionCondition.
# 20. Comments.
1637073641,c6c58a4e2da5ed0040e8e1fbcf513083,7,0,practice,NULL,PennController,10,_Trial_,Start,1637071966841,255,255,,,K,Hat der Interessent eine Anleihe erworben?,manipulation,NULL
1637073641,c6c58a4e2da5ed0040e8e1fbcf513083,7,0,practice,NULL,PennController,10,_Header_,Start,1637071966841,255,255,,,K,Hat der Interessent eine Anleihe erworben?,manipulation,NULL
1637073641,c6c58a4e2da5ed0040e8e1fbcf513083,7,0,practice,NULL,PennController,10,_Header_,End,1637071966841,255,255,,,K,Hat der Interessent eine Anleihe erworben?,manipulation,NULL
# 20. Reading time.
# 21. Newline?.
# 22. Sentence (or sentence MD5).
# 23. Comments.
1637073641,c6c58a4e2da5ed0040e8e1fbcf513083,7,0,practice,NULL,Controller-DashedSentence,DashedSentence,1,Am,1637071988093,255,255,,,K,Hat der Interessent eine Anleihe erworben?,manipulation,464,false,Am Ende erwarb der Interessent die Anleihe und dann dankte er der Bankkauffrau für ihre Beratung.,Any addtional parameters were appended as additional columns
1637073641,c6c58a4e2da5ed0040e8e1fbcf513083,7,0,practice,NULL,Controller-DashedSentence,DashedSentence,2,Ende,1637071988093,255,255,,,K,Hat der Interessent eine Anleihe erworben?,manipulation,416,false,Am Ende erwarb der Interessent die Anleihe und dann dankte er der Bankkauffrau für ihre Beratung.,Any addtional parameters were appended as additional columns
1637073641,c6c58a4e2da5ed0040e8e1fbcf513083,7,0,practice,NULL,Controller-DashedSentence,DashedSentence,3,erwarb,1637071988093,255,255,,,K,Hat der Interessent eine Anleihe erworben?,manipulation,384,false,Am Ende erwarb der Interessent die Anleihe und dann dankte er der Bankkauffrau für ihre Beratung.,Any addtional parameters were appended as additional columns
1637073641,c6c58a4e2da5ed0040e8e1fbcf513083,7,0,practice,NULL,Controller-DashedSentence,DashedSentence,4,der,1637071988093,255,255,,,K,Hat der Interessent eine Anleihe erworben?,manipulation,384,false,Am Ende erwarb der Interessent die Anleihe und dann dankte er der Bankkauffrau für ihre Beratung.,Any addtional parameters were appended as additional columns
1637073641,c6c58a4e2da5ed0040e8e1fbcf513083,7,0,practice,NULL,Controller-DashedSentence,DashedSentence,5,Interessent,1637071988093,255,255,,,K,Hat der Interessent eine Anleihe erworben?,manipulation,400,false,Am Ende erwarb der Interessent die Anleihe und dann dankte er der Bankkauffrau für ihre Beratung.,Any addtional parameters were appended as additional columns
1637073641,c6c58a4e2da5ed0040e8e1fbcf513083,7,0,practice,NULL,Controller-DashedSentence,DashedSentence,6,die,1637071988093,255,255,,,K,Hat der Interessent eine Anleihe erworben?,manipulation,416,false,Am Ende erwarb der Interessent die Anleihe und dann dankte er der Bankkauffrau für ihre Beratung.,Any addtional parameters were appended as additional columns
1637073641,c6c58a4e2da5ed0040e8e1fbcf513083,7,0,practice,NULL,Controller-DashedSentence,DashedSentence,7,Anleihe,1637071988093,255,255,,,K,Hat der Interessent eine Anleihe erworben?,manipulation,432,false,Am Ende erwarb der Interessent die Anleihe und dann dankte er der Bankkauffrau für ihre Beratung.,Any addtional parameters were appended as additional columns
1637073641,c6c58a4e2da5ed0040e8e1fbcf513083,7,0,practice,NULL,Controller-DashedSentence,DashedSentence,8,und,1637071988093,255,255,,,K,Hat der Interessent eine Anleihe erworben?,manipulation,496,false,Am Ende erwarb der Interessent die Anleihe und dann dankte er der Bankkauffrau für ihre Beratung.,Any addtional parameters were appended as additional columns
1637073641,c6c58a4e2da5ed0040e8e1fbcf513083,7,0,practice,NULL,Controller-DashedSentence,DashedSentence,9,dann,1637071988093,255,255,,,K,Hat der Interessent eine Anleihe erworben?,manipulation,368,false,Am Ende erwarb der Interessent die Anleihe und dann dankte er der Bankkauffrau für ihre Beratung.,Any addtional parameters were appended as additional columns
1637073641,c6c58a4e2da5ed0040e8e1fbcf513083,7,0,practice,NULL,Controller-DashedSentence,DashedSentence,10,dankte,1637071988093,255,255,,,K,Hat der Interessent eine Anleihe erworben?,manipulation,416,false,Am Ende erwarb der Interessent die Anleihe und dann dankte er der Bankkauffrau für ihre Beratung.,Any addtional parameters were appended as additional columns
1637073641,c6c58a4e2da5ed0040e8e1fbcf513083,7,0,practice,NULL,Controller-DashedSentence,DashedSentence,11,er,1637071988093,255,255,,,K,Hat der Interessent eine Anleihe erworben?,manipulation,400,false,Am Ende erwarb der Interessent die Anleihe und dann dankte er der Bankkauffrau für ihre Beratung.,Any addtional parameters were appended as additional columns
1637073641,c6c58a4e2da5ed0040e8e1fbcf513083,7,0,practice,NULL,Controller-DashedSentence,DashedSentence,12,der,1637071988093,255,255,,,K,Hat der Interessent eine Anleihe erworben?,manipulation,416,false,Am Ende erwarb der Interessent die Anleihe und dann dankte er der Bankkauffrau für ihre Beratung.,Any addtional parameters were appended as additional columns
1637073641,c6c58a4e2da5ed0040e8e1fbcf513083,7,0,practice,NULL,Controller-DashedSentence,DashedSentence,13,Bankkauffrau,1637071988093,255,255,,,K,Hat der Interessent eine Anleihe erworben?,manipulation,512,false,Am Ende erwarb der Interessent die Anleihe und dann dankte er der Bankkauffrau für ihre Beratung.,Any addtional parameters were appended as additional columns
1637073641,c6c58a4e2da5ed0040e8e1fbcf513083,7,0,practice,NULL,Controller-DashedSentence,DashedSentence,14,für,1637071988093,255,255,,,K,Hat der Interessent eine Anleihe erworben?,manipulation,400,false,Am Ende erwarb der Interessent die Anleihe und dann dankte er der Bankkauffrau für ihre Beratung.,Any addtional parameters were appended as additional columns
1637073641,c6c58a4e2da5ed0040e8e1fbcf513083,7,0,practice,NULL,Controller-DashedSentence,DashedSentence,15,ihre,1637071988093,255,255,,,K,Hat der Interessent eine Anleihe erworben?,manipulation,369,false,Am Ende erwarb der Interessent die Anleihe und dann dankte er der Bankkauffrau für ihre Beratung.,Any addtional parameters were appended as additional columns
1637073641,c6c58a4e2da5ed0040e8e1fbcf513083,7,0,practice,NULL,Controller-DashedSentence,DashedSentence,16,Beratung.,1637071988093,255,255,,,K,Hat der Interessent eine Anleihe erworben?,manipulation,479,false,Am Ende erwarb der Interessent die Anleihe und dann dankte er der Bankkauffrau für ihre Beratung.,Any addtional parameters were appended as additional columns
# 20. Comments.
1637073641,c6c58a4e2da5ed0040e8e1fbcf513083,7,0,practice,NULL,Canvas,ComprehensionQuestion,Print,NA,1637071988095,255,255,,,K,Hat der Interessent eine Anleihe erworben?,manipulation,NULL
1637073641,c6c58a4e2da5ed0040e8e1fbcf513083,7,0,practice,NULL,Key,ComprehensionDecide,PressedKey,K,1637071990269,255,255,,,K,Hat der Interessent eine Anleihe erworben?,manipulation,Wait success
1637073641,c6c58a4e2da5ed0040e8e1fbcf513083,7,0,practice,NULL,PennController,10,_Trial_,End,1637071990271,255,255,,,K,Hat der Interessent eine Anleihe erworben?,manipulation,NULL
1637073641,c6c58a4e2da5ed0040e8e1fbcf513083,8,0,practice,NULL,PennController,11,_Trial_,Start,1637071990273,255,255,,,,,,NULL
1637073641,c6c58a4e2da5ed0040e8e1fbcf513083,8,0,practice,NULL,PennController,11,_Header_,Start,1637071990273,255,255,,,,,,NULL
1637073641,c6c58a4e2da5ed0040e8e1fbcf513083,8,0,practice,NULL,PennController,11,_Header_,End,1637071990273,255,255,,,,,,NULL
# 20. Reading time.
# 21. Newline?.
# 22. Sentence (or sentence MD5).
# 23. Comments.
1637073641,c6c58a4e2da5ed0040e8e1fbcf513083,8,0,practice,NULL,Controller-DashedSentence,DashedSentence,1,Daraufhin,1637072020541,255,255,,,,,,369,false,Daraufhin überwies der Mediziner den Sozialarbeiter.,Any addtional parameters were appended as additional columns
1637073641,c6c58a4e2da5ed0040e8e1fbcf513083,8,0,practice,NULL,Controller-DashedSentence,DashedSentence,2,überwies,1637072020541,255,255,,,,,,351,false,Daraufhin überwies der Mediziner den Sozialarbeiter.,Any addtional parameters were appended as additional columns
1637073641,c6c58a4e2da5ed0040e8e1fbcf513083,8,0,practice,NULL,Controller-DashedSentence,DashedSentence,3,der,1637072020541,255,255,,,,,,289,false,Daraufhin überwies der Mediziner den Sozialarbeiter.,Any addtional parameters were appended as additional columns
1637073641,c6c58a4e2da5ed0040e8e1fbcf513083,8,0,practice,NULL,Controller-DashedSentence,DashedSentence,4,Mediziner,1637072020541,255,255,,,,,,320,false,Daraufhin überwies der Mediziner den Sozialarbeiter.,Any addtional parameters were appended as additional columns
1637073641,c6c58a4e2da5ed0040e8e1fbcf513083,8,0,practice,NULL,Controller-DashedSentence,DashedSentence,5,den,1637072020541,255,255,,,,,,320,false,Daraufhin überwies der Mediziner den Sozialarbeiter.,Any addtional parameters were appended as additional columns
1637073641,c6c58a4e2da5ed0040e8e1fbcf513083,8,0,practice,NULL,Controller-DashedSentence,DashedSentence,6,Sozialarbeiter.,1637072020541,255,255,,,,,,351,false,Daraufhin überwies der Mediziner den Sozialarbeiter.,Any addtional parameters were appended as additional columns
# 20. Comments.
1637073641,c6c58a4e2da5ed0040e8e1fbcf513083,8,0,practice,NULL,PennController,11,_Trial_,End,1637072020545,255,255,,,,,,NULL
1637073641,c6c58a4e2da5ed0040e8e1fbcf513083,9,0,practice,NULL,PennController,12,_Trial_,Start,1637072020549,255,255,,,D,Hat der Eigentümer den Feuerwehrmann beleidigt?,paragraph,NULL
1637073641,c6c58a4e2da5ed0040e8e1fbcf513083,9,0,practice,NULL,PennController,12,_Header_,Start,1637072020549,255,255,,,D,Hat der Eigentümer den Feuerwehrmann beleidigt?,paragraph,NULL
1637073641,c6c58a4e2da5ed0040e8e1fbcf513083,9,0,practice,NULL,PennController,12,_Header_,End,1637072020549,255,255,,,D,Hat der Eigentümer den Feuerwehrmann beleidigt?,paragraph,NULL
# 20. Reading time.
# 21. Newline?.
# 22. Sentence (or sentence MD5).
# 23. Comments.
1637073641,c6c58a4e2da5ed0040e8e1fbcf513083,9,0,practice,NULL,Controller-DashedSentence,DashedSentence,1,Dann,1637072035853,255,255,,,D,Hat der Eigentümer den Feuerwehrmann beleidigt?,paragraph,319,false,Dann sprühte der Feuerwehrmann den Eigentümer und daraufhin betrat er das Haus.,Any addtional parameters were appended as additional columns
1637073641,c6c58a4e2da5ed0040e8e1fbcf513083,9,0,practice,NULL,Controller-DashedSentence,DashedSentence,2,sprühte,1637072035853,255,255,,,D,Hat der Eigentümer den Feuerwehrmann beleidigt?,paragraph,336,false,Dann sprühte der Feuerwehrmann den Eigentümer und daraufhin betrat er das Haus.,Any addtional parameters were appended as additional columns
1637073641,c6c58a4e2da5ed0040e8e1fbcf513083,9,0,practice,NULL,Controller-DashedSentence,DashedSentence,3,der,1637072035853,255,255,,,D,Hat der Eigentümer den Feuerwehrmann beleidigt?,paragraph,320,false,Dann sprühte der Feuerwehrmann den Eigentümer und daraufhin betrat er das Haus.,Any addtional parameters were appended as additional columns
1637073641,c6c58a4e2da5ed0040e8e1fbcf513083,9,0,practice,NULL,Controller-DashedSentence,DashedSentence,4,Feuerwehrmann,1637072035853,255,255,,,D,Hat der Eigentümer den Feuerwehrmann beleidigt?,paragraph,320,false,Dann sprühte der Feuerwehrmann den Eigentümer und daraufhin betrat er das Haus.,Any addtional parameters were appended as additional columns
1637073641,c6c58a4e2da5ed0040e8e1fbcf513083,9,0,practice,NULL,Controller-DashedSentence,DashedSentence,5,den,1637072035853,255,255,,,D,Hat der Eigentümer den Feuerwehrmann beleidigt?,paragraph,336,false,Dann sprühte der Feuerwehrmann den Eigentümer und daraufhin betrat er das Haus.,Any addtional parameters were appended as additional columns
1637073641,c6c58a4e2da5ed0040e8e1fbcf513083,9,0,practice,NULL,Controller-DashedSentence,DashedSentence,6,Eigentümer,1637072035853,255,255,,,D,Hat der Eigentümer den Feuerwehrmann beleidigt?,paragraph,368,false,Dann sprühte der Feuerwehrmann den Eigentümer und daraufhin betrat er das Haus.,Any addtional parameters were appended as additional columns
1637073641,c6c58a4e2da5ed0040e8e1fbcf513083,9,0,practice,NULL,Controller-DashedSentence,DashedSentence,7,und,1637072035853,255,255,,,D,Hat der Eigentümer den Feuerwehrmann beleidigt?,paragraph,337,false,Dann sprühte der Feuerwehrmann den Eigentümer und daraufhin betrat er das Haus.,Any addtional parameters were appended as additional columns
1637073641,c6c58a4e2da5ed0040e8e1fbcf513083,9,0,practice,NULL,Controller-DashedSentence,DashedSentence,8,daraufhin,1637072035853,255,255,,,D,Hat der Eigentümer den Feuerwehrmann beleidigt?,paragraph,383,false,Dann sprühte der Feuerwehrmann den Eigentümer und daraufhin betrat er das Haus.,Any addtional parameters were appended as additional columns
1637073641,c6c58a4e2da5ed0040e8e1fbcf513083,9,0,practice,NULL,Controller-DashedSentence,DashedSentence,9,betrat,1637072035853,255,255,,,D,Hat der Eigentümer den Feuerwehrmann beleidigt?,paragraph,352,false,Dann sprühte der Feuerwehrmann den Eigentümer und daraufhin betrat er das Haus.,Any addtional parameters were appended as additional columns
1637073641,c6c58a4e2da5ed0040e8e1fbcf513083,9,0,practice,NULL,Controller-DashedSentence,DashedSentence,10,er,1637072035853,255,255,,,D,Hat der Eigentümer den Feuerwehrmann beleidigt?,paragraph,434,false,Dann sprühte der Feuerwehrmann den Eigentümer und daraufhin betrat er das Haus.,Any addtional parameters were appended as additional columns
1637073641,c6c58a4e2da5ed0040e8e1fbcf513083,9,0,practice,NULL,Controller-DashedSentence,DashedSentence,11,das,1637072035853,255,255,,,D,Hat der Eigentümer den Feuerwehrmann beleidigt?,paragraph,366,false,Dann sprühte der Feuerwehrmann den Eigentümer und daraufhin betrat er das Haus.,Any addtional parameters were appended as additional columns
1637073641,c6c58a4e2da5ed0040e8e1fbcf513083,9,0,practice,NULL,Controller-DashedSentence,DashedSentence,12,Haus.,1637072035853,255,255,,,D,Hat der Eigentümer den Feuerwehrmann beleidigt?,paragraph,368,false,Dann sprühte der Feuerwehrmann den Eigentümer und daraufhin betrat er das Haus.,Any addtional parameters were appended as additional columns
# 20. Comments.
1637073641,c6c58a4e2da5ed0040e8e1fbcf513083,9,0,practice,NULL,Canvas,ComprehensionQuestion,Print,NA,1637072035855,255,255,,,D,Hat der Eigentümer den Feuerwehrmann beleidigt?,paragraph,NULL
1637073641,c6c58a4e2da5ed0040e8e1fbcf513083,9,0,practice,NULL,Key,ComprehensionDecide,PressedKey,D,1637072041693,255,255,,,D,Hat der Eigentümer den Feuerwehrmann beleidigt?,paragraph,Wait success
1637073641,c6c58a4e2da5ed0040e8e1fbcf513083,9,0,practice,NULL,PennController,12,_Trial_,End,1637072041694,255,255,,,D,Hat der Eigentümer den Feuerwehrmann beleidigt?,paragraph,NULL
# 13. Comments.
1637073641,c6c58a4e2da5ed0040e8e1fbcf513083,10,0,practice_feedback,NULL,PennController,6,_Trial_,Start,1637072041696,NULL
1637073641,c6c58a4e2da5ed0040e8e1fbcf513083,10,0,practice_feedback,NULL,PennController,6,_Header_,Start,1637072041696,NULL
1637073641,c6c58a4e2da5ed0040e8e1fbcf513083,10,0,practice_feedback,NULL,PennController,6,_Header_,End,1637072041696,NULL
1637073641,c6c58a4e2da5ed0040e8e1fbcf513083,10,0,practice_feedback,NULL,Var,meanPracAcc,Final,1,1637072047149,Value at the end of the trial
1637073641,c6c58a4e2da5ed0040e8e1fbcf513083,10,0,practice_feedback,NULL,PennController,6,_Trial_,End,1637072047149,NULL
# 13. Item.
# 14. Condition.
# 15. List.
# 16. Critical.
# 17. QuestionCorrect.
# 18. QuestionText.
# 19. QuestionCondition.
# 20. Comments.
1637073641,c6c58a4e2da5ed0040e8e1fbcf513083,11,0,block1,NULL,PennController,13,_Trial_,Start,1637072047151,145,257,1,6,,,,NULL
1637073641,c6c58a4e2da5ed0040e8e1fbcf513083,11,0,block1,NULL,PennController,13,_Header_,Start,1637072047151,145,257,1,6,,,,NULL
1637073641,c6c58a4e2da5ed0040e8e1fbcf513083,11,0,block1,NULL,PennController,13,_Header_,End,1637072047151,145,257,1,6,,,,NULL
# 20. Reading time.
# 21. Newline?.
# 22. Sentence (or sentence MD5).
# 23. Comments.
1637073641,c6c58a4e2da5ed0040e8e1fbcf513083,11,0,block1,NULL,Controller-DashedSentence,DashedSentence,1,Dann,1637072073117,145,257,1,6,,,,303,false,Dann suchte die Jugendliche die Schwester und anschließend ermahnte sie die Kinder%2C vorsichtiger beim Spielen zu sein.,Any addtional parameters were appended as additional columns
1637073641,c6c58a4e2da5ed0040e8e1fbcf513083,11,0,block1,NULL,Controller-DashedSentence,DashedSentence,2,suchte,1637072073117,145,257,1,6,,,,304,false,Dann suchte die Jugendliche die Schwester und anschließend ermahnte sie die Kinder%2C vorsichtiger beim Spielen zu sein.,Any addtional parameters were appended as additional columns
1637073641,c6c58a4e2da5ed0040e8e1fbcf513083,11,0,block1,NULL,Controller-DashedSentence,DashedSentence,3,die,1637072073117,145,257,1,6,,,,320,false,Dann suchte die Jugendliche die Schwester und anschließend ermahnte sie die Kinder%2C vorsichtiger beim Spielen zu sein.,Any addtional parameters were appended as additional columns
1637073641,c6c58a4e2da5ed0040e8e1fbcf513083,11,0,block1,NULL,Controller-DashedSentence,DashedSentence,4,Jugendliche,1637072073117,145,257,1,6,,,,353,false,Dann suchte die Jugendliche die Schwester und anschließend ermahnte sie die Kinder%2C vorsichtiger beim Spielen zu sein.,Any addtional parameters were appended as additional columns
1637073641,c6c58a4e2da5ed0040e8e1fbcf513083,11,0,block1,NULL,Controller-DashedSentence,DashedSentence,5,die,1637072073117,145,257,1,6,,,,383,false,Dann suchte die Jugendliche die Schwester und anschließend ermahnte sie die Kinder%2C vorsichtiger beim Spielen zu sein.,Any addtional parameters were appended as additional columns
1637073641,c6c58a4e2da5ed0040e8e1fbcf513083,11,0,block1,NULL,Controller-DashedSentence,DashedSentence,6,Schwester,1637072073117,145,257,1,6,,,,320,false,Dann suchte die Jugendliche die Schwester und anschließend ermahnte sie die Kinder%2C vorsichtiger beim Spielen zu sein.,Any addtional parameters were appended as additional columns
1637073641,c6c58a4e2da5ed0040e8e1fbcf513083,11,0,block1,NULL,Controller-DashedSentence,DashedSentence,7,und,1637072073117,145,257,1,6,,,,353,false,Dann suchte die Jugendliche die Schwester und anschließend ermahnte sie die Kinder%2C vorsichtiger beim Spielen zu sein.,Any addtional parameters were appended as additional columns
1637073641,c6c58a4e2da5ed0040e8e1fbcf513083,11,0,block1,NULL,Controller-DashedSentence,DashedSentence,8,anschließend,1637072073117,145,257,1,6,,,,351,false,Dann suchte die Jugendliche die Schwester und anschließend ermahnte sie die Kinder%2C vorsichtiger beim Spielen zu sein.,Any addtional parameters were appended as additional columns
1637073641,c6c58a4e2da5ed0040e8e1fbcf513083,11,0,block1,NULL,Controller-DashedSentence,DashedSentence,9,ermahnte,1637072073117,145,257,1,6,,,,321,false,Dann suchte die Jugendliche die Schwester und anschließend ermahnte sie die Kinder%2C vorsichtiger beim Spielen zu sein.,Any addtional parameters were appended as additional columns
1637073641,c6c58a4e2da5ed0040e8e1fbcf513083,11,0,block1,NULL,Controller-DashedSentence,DashedSentence,10,sie,1637072073117,145,257,1,6,,,,352,false,Dann suchte die Jugendliche die Schwester und anschließend ermahnte sie die Kinder%2C vorsichtiger beim Spielen zu sein.,Any addtional parameters were appended as additional columns
1637073641,c6c58a4e2da5ed0040e8e1fbcf513083,11,0,block1,NULL,Controller-DashedSentence,DashedSentence,11,die,1637072073117,145,257,1,6,,,,351,false,Dann suchte die Jugendliche die Schwester und anschließend ermahnte sie die Kinder%2C vorsichtiger beim Spielen zu sein.,Any addtional parameters were appended as additional columns
1637073641,c6c58a4e2da5ed0040e8e1fbcf513083,11,0,block1,NULL,Controller-DashedSentence,DashedSentence,12,Kinder%2C,1637072073117,145,257,1,6,,,,352,false,Dann suchte die Jugendliche die Schwester und anschließend ermahnte sie die Kinder%2C vorsichtiger beim Spielen zu sein.,Any addtional parameters were appended as additional columns
1637073641,c6c58a4e2da5ed0040e8e1fbcf513083,11,0,block1,NULL,Controller-DashedSentence,DashedSentence,13,vorsichtiger,1637072073117,145,257,1,6,,,,337,false,Dann suchte die Jugendliche die Schwester und anschließend ermahnte sie die Kinder%2C vorsichtiger beim Spielen zu sein.,Any addtional parameters were appended as additional columns
1637073641,c6c58a4e2da5ed0040e8e1fbcf513083,11,0,block1,NULL,Controller-DashedSentence,DashedSentence,14,beim,1637072073117,145,257,1,6,,,,351,false,Dann suchte die Jugendliche die Schwester und anschließend ermahnte sie die Kinder%2C vorsichtiger beim Spielen zu sein.,Any addtional parameters were appended as additional columns
1637073641,c6c58a4e2da5ed0040e8e1fbcf513083,11,0,block1,NULL,Controller-DashedSentence,DashedSentence,15,Spielen,1637072073117,145,257,1,6,,,,337,false,Dann suchte die Jugendliche die Schwester und anschließend ermahnte sie die Kinder%2C vorsichtiger beim Spielen zu sein.,Any addtional parameters were appended as additional columns
1637073641,c6c58a4e2da5ed0040e8e1fbcf513083,11,0,block1,NULL,Controller-DashedSentence,DashedSentence,16,zu,1637072073117,145,257,1,6,,,,367,false,Dann suchte die Jugendliche die Schwester und anschließend ermahnte sie die Kinder%2C vorsichtiger beim Spielen zu sein.,Any addtional parameters were appended as additional columns
1637073641,c6c58a4e2da5ed0040e8e1fbcf513083,11,0,block1,NULL,Controller-DashedSentence,DashedSentence,17,sein.,1637072073117,145,257,1,6,,,,320,false,Dann suchte die Jugendliche die Schwester und anschließend ermahnte sie die Kinder%2C vorsichtiger beim Spielen zu sein.,Any addtional parameters were appended as additional columns
# 20. Comments.
1637073641,c6c58a4e2da5ed0040e8e1fbcf513083,11,0,block1,NULL,PennController,13,_Trial_,End,1637072073118,145,257,1,6,,,,NULL
1637073641,c6c58a4e2da5ed0040e8e1fbcf513083,12,0,block1,NULL,PennController,14,_Trial_,Start,1637072073120,114,255,1,6,,,,NULL
1637073641,c6c58a4e2da5ed0040e8e1fbcf513083,12,0,block1,NULL,PennController,14,_Header_,Start,1637072073120,114,255,1,6,,,,NULL
1637073641,c6c58a4e2da5ed0040e8e1fbcf513083,12,0,block1,NULL,PennController,14,_Header_,End,1637072073120,114,255,1,6,,,,NULL
# 20. Reading time.
# 21. Newline?.
# 22. Sentence (or sentence MD5).
# 23. Comments.
1637073641,c6c58a4e2da5ed0040e8e1fbcf513083,12,0,block1,NULL,Controller-DashedSentence,DashedSentence,1,Danach,1637072088461,114,255,1,6,,,,255,false,Danach entließ der Polizist den Notarzt und dann versicherte er dem Fußgänger%2C dass er den Mercedesfahrer ausfindig machen würde.,Any addtional parameters were appended as additional columns
1637073641,c6c58a4e2da5ed0040e8e1fbcf513083,12,0,block1,NULL,Controller-DashedSentence,DashedSentence,2,entließ,1637072088461,114,255,1,6,,,,320,false,Danach entließ der Polizist den Notarzt und dann versicherte er dem Fußgänger%2C dass er den Mercedesfahrer ausfindig machen würde.,Any addtional parameters were appended as additional columns
1637073641,c6c58a4e2da5ed0040e8e1fbcf513083,12,0,block1,NULL,Controller-DashedSentence,DashedSentence,3,der,1637072088461,114,255,1,6,,,,304,false,Danach entließ der Polizist den Notarzt und dann versicherte er dem Fußgänger%2C dass er den Mercedesfahrer ausfindig machen würde.,Any addtional parameters were appended as additional columns
1637073641,c6c58a4e2da5ed0040e8e1fbcf513083,12,0,block1,NULL,Controller-DashedSentence,DashedSentence,4,Polizist,1637072088461,114,255,1,6,,,,272,false,Danach entließ der Polizist den Notarzt und dann versicherte er dem Fußgänger%2C dass er den Mercedesfahrer ausfindig machen würde.,Any addtional parameters were appended as additional columns
1637073641,c6c58a4e2da5ed0040e8e1fbcf513083,12,0,block1,NULL,Controller-DashedSentence,DashedSentence,5,den,1637072088461,114,255,1,6,,,,305,false,Danach entließ der Polizist den Notarzt und dann versicherte er dem Fußgänger%2C dass er den Mercedesfahrer ausfindig machen würde.,Any addtional parameters were appended as additional columns
1637073641,c6c58a4e2da5ed0040e8e1fbcf513083,12,0,block1,NULL,Controller-DashedSentence,DashedSentence,6,Notarzt,1637072088461,114,255,1,6,,,,336,false,Danach entließ der Polizist den Notarzt und dann versicherte er dem Fußgänger%2C dass er den Mercedesfahrer ausfindig machen würde.,Any addtional parameters were appended as additional columns
1637073641,c6c58a4e2da5ed0040e8e1fbcf513083,12,0,block1,NULL,Controller-DashedSentence,DashedSentence,7,und,1637072088461,114,255,1,6,,,,287,false,Danach entließ der Polizist den Notarzt und dann versicherte er dem Fußgänger%2C dass er den Mercedesfahrer ausfindig machen würde.,Any addtional parameters were appended as additional columns
1637073641,c6c58a4e2da5ed0040e8e1fbcf513083,12,0,block1,NULL,Controller-DashedSentence,DashedSentence,8,dann,1637072088461,114,255,1,6,,,,304,false,Danach entließ der Polizist den Notarzt und dann versicherte er dem Fußgänger%2C dass er den Mercedesfahrer ausfindig machen würde.,Any addtional parameters were appended as additional columns
1637073641,c6c58a4e2da5ed0040e8e1fbcf513083,12,0,block1,NULL,Controller-DashedSentence,DashedSentence,9,versicherte,1637072088461,114,255,1,6,,,,336,false,Danach entließ der Polizist den Notarzt und dann versicherte er dem Fußgänger%2C dass er den Mercedesfahrer ausfindig machen würde.,Any addtional parameters were appended as additional columns
1637073641,c6c58a4e2da5ed0040e8e1fbcf513083,12,0,block1,NULL,Controller-DashedSentence,DashedSentence,10,er,1637072088461,114,255,1,6,,,,305,false,Danach entließ der Polizist den Notarzt und dann versicherte er dem Fußgänger%2C dass er den Mercedesfahrer ausfindig machen würde.,Any addtional parameters were appended as additional columns
1637073641,c6c58a4e2da5ed0040e8e1fbcf513083,12,0,block1,NULL,Controller-DashedSentence,DashedSentence,11,dem,1637072088461,114,255,1,6,,,,319,false,Danach entließ der Polizist den Notarzt und dann versicherte er dem Fußgänger%2C dass er den Mercedesfahrer ausfindig machen würde.,Any addtional parameters were appended as additional columns
1637073641,c6c58a4e2da5ed0040e8e1fbcf513083,12,0,block1,NULL,Controller-DashedSentence,DashedSentence,12,Fußgänger%2C,1637072088461,114,255,1,6,,,,320,false,Danach entließ der Polizist den Notarzt und dann versicherte er dem Fußgänger%2C dass er den Mercedesfahrer ausfindig machen würde.,Any addtional parameters were appended as additional columns
1637073641,c6c58a4e2da5ed0040e8e1fbcf513083,12,0,block1,NULL,Controller-DashedSentence,DashedSentence,13,dass,1637072088461,114,255,1,6,,,,320,false,Danach entließ der Polizist den Notarzt und dann versicherte er dem Fußgänger%2C dass er den Mercedesfahrer ausfindig machen würde.,Any addtional parameters were appended as additional columns
1637073641,c6c58a4e2da5ed0040e8e1fbcf513083,12,0,block1,NULL,Controller-DashedSentence,DashedSentence,14,er,1637072088461,114,255,1,6,,,,337,false,Danach entließ der Polizist den Notarzt und dann versicherte er dem Fußgänger%2C dass er den Mercedesfahrer ausfindig machen würde.,Any addtional parameters were appended as additional columns
1637073641,c6c58a4e2da5ed0040e8e1fbcf513083,12,0,block1,NULL,Controller-DashedSentence,DashedSentence,15,den,1637072088461,114,255,1,6,,,,303,false,Danach entließ der Polizist den Notarzt und dann versicherte er dem Fußgänger%2C dass er den Mercedesfahrer ausfindig machen würde.,Any addtional parameters were appended as additional columns
1637073641,c6c58a4e2da5ed0040e8e1fbcf513083,12,0,block1,NULL,Controller-DashedSentence,DashedSentence,16,Mercedesfahrer,1637072088461,114,255,1,6,,,,352,false,Danach entließ der Polizist den Notarzt und dann versicherte er dem Fußgänger%2C dass er den Mercedesfahrer ausfindig machen würde.,Any addtional parameters were appended as additional columns
1637073641,c6c58a4e2da5ed0040e8e1fbcf513083,12,0,block1,NULL,Controller-DashedSentence,DashedSentence,17,ausfindig,1637072088461,114,255,1,6,,,,434,false,Danach entließ der Polizist den Notarzt und dann versicherte er dem Fußgänger%2C dass er den Mercedesfahrer ausfindig machen würde.,Any addtional parameters were appended as additional columns
1637073641,c6c58a4e2da5ed0040e8e1fbcf513083,12,0,block1,NULL,Controller-DashedSentence,DashedSentence,18,machen,1637072088461,114,255,1,6,,,,349,false,Danach entließ der Polizist den Notarzt und dann versicherte er dem Fußgänger%2C dass er den Mercedesfahrer ausfindig machen würde.,Any addtional parameters were appended as additional columns
1637073641,c6c58a4e2da5ed0040e8e1fbcf513083,12,0,block1,NULL,Controller-DashedSentence,DashedSentence,19,würde.,1637072088461,114,255,1,6,,,,385,false,Danach entließ der Polizist den Notarzt und dann versicherte er dem Fußgänger%2C dass er den Mercedesfahrer ausfindig machen würde.,Any addtional parameters were appended as additional columns
# 20. Comments.
1637073641,c6c58a4e2da5ed0040e8e1fbcf513083,12,0,block1,NULL,PennController,14,_Trial_,End,1637072088464,114,255,1,6,,,,NULL
1637073641,c6c58a4e2da5ed0040e8e1fbcf513083,13,0,block1,NULL,PennController,15,_Trial_,Start,1637072088465,25,153,1,6,D,Hat der Mann die Geschätsfrau verpackt?,manipulation,NULL
1637073641,c6c58a4e2da5ed0040e8e1fbcf513083,13,0,block1,NULL,PennController,15,_Header_,Start,1637072088465,25,153,1,6,D,Hat der Mann die Geschätsfrau verpackt?,manipulation,NULL
1637073641,c6c58a4e2da5ed0040e8e1fbcf513083,13,0,block1,NULL,PennController,15,_Header_,End,1637072088466,25,153,1,6,D,Hat der Mann die Geschätsfrau verpackt?,manipulation,NULL
# 20. Reading time.
# 21. Newline?.
# 22. Sentence (or sentence MD5).
# 23. Comments.
1637073641,c6c58a4e2da5ed0040e8e1fbcf513083,13,0,block1,NULL,Controller-DashedSentence,DashedSentence,1,Daraufhin,1637072125597,25,153,1,6,D,Hat der Mann die Geschätsfrau verpackt?,manipulation,417,false,Daraufhin sortierte der Mann die Geschäftsfrau und dann lobte er sie für ihren guten Geschmack.,Any addtional parameters were appended as additional columns
1637073641,c6c58a4e2da5ed0040e8e1fbcf513083,13,0,block1,NULL,Controller-DashedSentence,DashedSentence,2,sortierte,1637072125597,25,153,1,6,D,Hat der Mann die Geschätsfrau verpackt?,manipulation,318,false,Daraufhin sortierte der Mann die Geschäftsfrau und dann lobte er sie für ihren guten Geschmack.,Any addtional parameters were appended as additional columns
1637073641,c6c58a4e2da5ed0040e8e1fbcf513083,13,0,block1,NULL,Controller-DashedSentence,DashedSentence,3,der,1637072125597,25,153,1,6,D,Hat der Mann die Geschätsfrau verpackt?,manipulation,288,false,Daraufhin sortierte der Mann die Geschäftsfrau und dann lobte er sie für ihren guten Geschmack.,Any addtional parameters were appended as additional columns
1637073641,c6c58a4e2da5ed0040e8e1fbcf513083,13,0,block1,NULL,Controller-DashedSentence,DashedSentence,4,Mann,1637072125597,25,153,1,6,D,Hat der Mann die Geschätsfrau verpackt?,manipulation,305,false,Daraufhin sortierte der Mann die Geschäftsfrau und dann lobte er sie für ihren guten Geschmack.,Any addtional parameters were appended as additional columns
1637073641,c6c58a4e2da5ed0040e8e1fbcf513083,13,0,block1,NULL,Controller-DashedSentence,DashedSentence,5,die,1637072125597,25,153,1,6,D,Hat der Mann die Geschätsfrau verpackt?,manipulation,288,false,Daraufhin sortierte der Mann die Geschäftsfrau und dann lobte er sie für ihren guten Geschmack.,Any addtional parameters were appended as additional columns
1637073641,c6c58a4e2da5ed0040e8e1fbcf513083,13,0,block1,NULL,Controller-DashedSentence,DashedSentence,6,Geschäftsfrau,1637072125597,25,153,1,6,D,Hat der Mann die Geschätsfrau verpackt?,manipulation,319,false,Daraufhin sortierte der Mann die Geschäftsfrau und dann lobte er sie für ihren guten Geschmack.,Any addtional parameters were appended as additional columns
1637073641,c6c58a4e2da5ed0040e8e1fbcf513083,13,0,block1,NULL,Controller-DashedSentence,DashedSentence,7,und,1637072125597,25,153,1,6,D,Hat der Mann die Geschätsfrau verpackt?,manipulation,337,false,Daraufhin sortierte der Mann die Geschäftsfrau und dann lobte er sie für ihren guten Geschmack.,Any addtional parameters were appended as additional columns
1637073641,c6c58a4e2da5ed0040e8e1fbcf513083,13,0,block1,NULL,Controller-DashedSentence,DashedSentence,8,dann,1637072125597,25,153,1,6,D,Hat der Mann die Geschätsfrau verpackt?,manipulation,319,false,Daraufhin sortierte der Mann die Geschäftsfrau und dann lobte er sie für ihren guten Geschmack.,Any addtional parameters were appended as additional columns
1637073641,c6c58a4e2da5ed0040e8e1fbcf513083,13,0,block1,NULL,Controller-DashedSentence,DashedSentence,9,lobte,1637072125597,25,153,1,6,D,Hat der Mann die Geschätsfrau verpackt?,manipulation,304,false,Daraufhin sortierte der Mann die Geschäftsfrau und dann lobte er sie für ihren guten Geschmack.,Any addtional parameters were appended as additional columns
1637073641,c6c58a4e2da5ed0040e8e1fbcf513083,13,0,block1,NULL,Controller-DashedSentence,DashedSentence,10,er,1637072125597,25,153,1,6,D,Hat der Mann die Geschätsfrau verpackt?,manipulation,320,false,Daraufhin sortierte der Mann die Geschäftsfrau und dann lobte er sie für ihren guten Geschmack.,Any addtional parameters were appended as additional columns
1637073641,c6c58a4e2da5ed0040e8e1fbcf513083,13,0,block1,NULL,Controller-DashedSentence,DashedSentence,11,sie,1637072125597,25,153,1,6,D,Hat der Mann die Geschätsfrau verpackt?,manipulation,288,false,Daraufhin sortierte der Mann die Geschäftsfrau und dann lobte er sie für ihren guten Geschmack.,Any addtional parameters were appended as additional columns
1637073641,c6c58a4e2da5ed0040e8e1fbcf513083,13,0,block1,NULL,Controller-DashedSentence,DashedSentence,12,für,1637072125597,25,153,1,6,D,Hat der Mann die Geschätsfrau verpackt?,manipulation,352,false,Daraufhin sortierte der Mann die Geschäftsfrau und dann lobte er sie für ihren guten Geschmack.,Any addtional parameters were appended as additional columns
1637073641,c6c58a4e2da5ed0040e8e1fbcf513083,13,0,block1,NULL,Controller-DashedSentence,DashedSentence,13,ihren,1637072125597,25,153,1,6,D,Hat der Mann die Geschätsfrau verpackt?,manipulation,322,false,Daraufhin sortierte der Mann die Geschäftsfrau und dann lobte er sie für ihren guten Geschmack.,Any addtional parameters were appended as additional columns
1637073641,c6c58a4e2da5ed0040e8e1fbcf513083,13,0,block1,NULL,Controller-DashedSentence,DashedSentence,14,guten,1637072125597,25,153,1,6,D,Hat der Mann die Geschätsfrau verpackt?,manipulation,447,false,Daraufhin sortierte der Mann die Geschäftsfrau und dann lobte er sie für ihren guten Geschmack.,Any addtional parameters were appended as additional columns
1637073641,c6c58a4e2da5ed0040e8e1fbcf513083,13,0,block1,NULL,Controller-DashedSentence,DashedSentence,15,Geschmack.,1637072125597,25,153,1,6,D,Hat der Mann die Geschätsfrau verpackt?,manipulation,399,false,Daraufhin sortierte der Mann die Geschäftsfrau und dann lobte er sie für ihren guten Geschmack.,Any addtional parameters were appended as additional columns
# 20. Comments.
1637073641,c6c58a4e2da5ed0040e8e1fbcf513083,13,0,block1,NULL,Canvas,ComprehensionQuestion,Print,NA,1637072125599,25,153,1,6,D,Hat der Mann die Geschätsfrau verpackt?,manipulation,NULL
1637073641,c6c58a4e2da5ed0040e8e1fbcf513083,13,0,block1,NULL,Key,ComprehensionDecide,PressedKey,K,1637072131005,25,153,1,6,D,Hat der Mann die Geschätsfrau verpackt?,manipulation,Wait success
1637073641,c6c58a4e2da5ed0040e8e1fbcf513083,13,0,block1,NULL,PennController,15,_Trial_,End,1637072131007,25,153,1,6,D,Hat der Mann die Geschätsfrau verpackt?,manipulation,NULL
1637073641,c6c58a4e2da5ed0040e8e1fbcf513083,14,0,block1,NULL,PennController,16,_Trial_,Start,1637072131009,43,152,1,6,D,Hat die Oma das Kaninchen geschlagen?,manipulation,NULL
1637073641,c6c58a4e2da5ed0040e8e1fbcf513083,14,0,block1,NULL,PennController,16,_Header_,Start,1637072131009,43,152,1,6,D,Hat die Oma das Kaninchen geschlagen?,manipulation,NULL
1637073641,c6c58a4e2da5ed0040e8e1fbcf513083,14,0,block1,NULL,PennController,16,_Header_,End,1637072131009,43,152,1,6,D,Hat die Oma das Kaninchen geschlagen?,manipulation,NULL
# 20. Reading time.
# 21. Newline?.
# 22. Sentence (or sentence MD5).
# 23. Comments.
1637073641,c6c58a4e2da5ed0040e8e1fbcf513083,14,0,block1,NULL,Controller-DashedSentence,DashedSentence,1,Daraufhin,1637072164397,43,152,1,6,D,Hat die Oma das Kaninchen geschlagen?,manipulation,383,false,Daraufhin streichelte die Oma das Kaninchen und nebenbei tröstete sie das Kleinkind.,Any addtional parameters were appended as additional columns
1637073641,c6c58a4e2da5ed0040e8e1fbcf513083,14,0,block1,NULL,Controller-DashedSentence,DashedSentence,2,streichelte,1637072164397,43,152,1,6,D,Hat die Oma das Kaninchen geschlagen?,manipulation,320,false,Daraufhin streichelte die Oma das Kaninchen und nebenbei tröstete sie das Kleinkind.,Any addtional parameters were appended as additional columns
1637073641,c6c58a4e2da5ed0040e8e1fbcf513083,14,0,block1,NULL,Controller-DashedSentence,DashedSentence,3,die,1637072164397,43,152,1,6,D,Hat die Oma das Kaninchen geschlagen?,manipulation,368,false,Daraufhin streichelte die Oma das Kaninchen und nebenbei tröstete sie das Kleinkind.,Any addtional parameters were appended as additional columns
1637073641,c6c58a4e2da5ed0040e8e1fbcf513083,14,0,block1,NULL,Controller-DashedSentence,DashedSentence,4,Oma,1637072164397,43,152,1,6,D,Hat die Oma das Kaninchen geschlagen?,manipulation,353,false,Daraufhin streichelte die Oma das Kaninchen und nebenbei tröstete sie das Kleinkind.,Any addtional parameters were appended as additional columns
1637073641,c6c58a4e2da5ed0040e8e1fbcf513083,14,0,block1,NULL,Controller-DashedSentence,DashedSentence,5,das,1637072164397,43,152,1,6,D,Hat die Oma das Kaninchen geschlagen?,manipulation,336,false,Daraufhin streichelte die Oma das Kaninchen und nebenbei tröstete sie das Kleinkind.,Any addtional parameters were appended as additional columns
1637073641,c6c58a4e2da5ed0040e8e1fbcf513083,14,0,block1,NULL,Controller-DashedSentence,DashedSentence,6,Kaninchen,1637072164397,43,152,1,6,D,Hat die Oma das Kaninchen geschlagen?,manipulation,368,false,Daraufhin streichelte die Oma das Kaninchen und nebenbei tröstete sie das Kleinkind.,Any addtional parameters were appended as additional columns
1637073641,c6c58a4e2da5ed0040e8e1fbcf513083,14,0,block1,NULL,Controller-DashedSentence,DashedSentence,7,und,1637072164397,43,152,1,6,D,Hat die Oma das Kaninchen geschlagen?,manipulation,319,false,Daraufhin streichelte die Oma das Kaninchen und nebenbei tröstete sie das Kleinkind.,Any addtional parameters were appended as additional columns
1637073641,c6c58a4e2da5ed0040e8e1fbcf513083,14,0,block1,NULL,Controller-DashedSentence,DashedSentence,8,nebenbei,1637072164397,43,152,1,6,D,Hat die Oma das Kaninchen geschlagen?,manipulation,336,false,Daraufhin streichelte die Oma das Kaninchen und nebenbei tröstete sie das Kleinkind.,Any addtional parameters were appended as additional columns
1637073641,c6c58a4e2da5ed0040e8e1fbcf513083,14,0,block1,NULL,Controller-DashedSentence,DashedSentence,9,tröstete,1637072164397,43,152,1,6,D,Hat die Oma das Kaninchen geschlagen?,manipulation,336,false,Daraufhin streichelte die Oma das Kaninchen und nebenbei tröstete sie das Kleinkind.,Any addtional parameters were appended as additional columns
1637073641,c6c58a4e2da5ed0040e8e1fbcf513083,14,0,block1,NULL,Controller-DashedSentence,DashedSentence,10,sie,1637072164397,43,152,1,6,D,Hat die Oma das Kaninchen geschlagen?,manipulation,368,false,Daraufhin streichelte die Oma das Kaninchen und nebenbei tröstete sie das Kleinkind.,Any addtional parameters were appended as additional columns
1637073641,c6c58a4e2da5ed0040e8e1fbcf513083,14,0,block1,NULL,Controller-DashedSentence,DashedSentence,11,das,1637072164397,43,152,1,6,D,Hat die Oma das Kaninchen geschlagen?,manipulation,352,false,Daraufhin streichelte die Oma das Kaninchen und nebenbei tröstete sie das Kleinkind.,Any addtional parameters were appended as additional columns
1637073641,c6c58a4e2da5ed0040e8e1fbcf513083,14,0,block1,NULL,Controller-DashedSentence,DashedSentence,12,Kleinkind.,1637072164397,43,152,1,6,D,Hat die Oma das Kaninchen geschlagen?,manipulation,400,false,Daraufhin streichelte die Oma das Kaninchen und nebenbei tröstete sie das Kleinkind.,Any addtional parameters were appended as additional columns
# 20. Comments.
1637073641,c6c58a4e2da5ed0040e8e1fbcf513083,14,0,block1,NULL,Canvas,ComprehensionQuestion,Print,NA,1637072164399,43,152,1,6,D,Hat die Oma das Kaninchen geschlagen?,manipulation,NULL
1637073641,c6c58a4e2da5ed0040e8e1fbcf513083,14,0,block1,NULL,Key,ComprehensionDecide,PressedKey,D,1637072167917,43,152,1,6,D,Hat die Oma das Kaninchen geschlagen?,manipulation,Wait success
1637073641,c6c58a4e2da5ed0040e8e1fbcf513083,14,0,block1,NULL,PennController,16,_Trial_,End,1637072167918,43,152,1,6,D,Hat die Oma das Kaninchen geschlagen?,manipulation,NULL
1637073641,c6c58a4e2da5ed0040e8e1fbcf513083,15,0,block1,NULL,PennController,17,_Trial_,Start,1637072167919,40,151,1,7,,,,NULL
1637073641,c6c58a4e2da5ed0040e8e1fbcf513083,15,0,block1,NULL,PennController,17,_Header_,Start,1637072167919,40,151,1,7,,,,NULL
1637073641,c6c58a4e2da5ed0040e8e1fbcf513083,15,0,block1,NULL,PennController,17,_Header_,End,1637072167920,40,151,1,7,,,,NULL
# 20. Reading time.
# 21. Newline?.
# 22. Sentence (or sentence MD5).
# 23. Comments.
1637073641,c6c58a4e2da5ed0040e8e1fbcf513083,15,0,block1,NULL,Controller-DashedSentence,DashedSentence,1,Dann,1637072238013,40,151,1,7,,,,256,false,Dann verhandelte der Minister mit dem Präsidenten und dabei besprachen sie genauere Details.,Any addtional parameters were appended as additional columns
1637073641,c6c58a4e2da5ed0040e8e1fbcf513083,15,0,block1,NULL,Controller-DashedSentence,DashedSentence,2,verhandelte,1637072238013,40,151,1,7,,,,176,false,Dann verhandelte der Minister mit dem Präsidenten und dabei besprachen sie genauere Details.,Any addtional parameters were appended as additional columns
1637073641,c6c58a4e2da5ed0040e8e1fbcf513083,15,0,block1,NULL,Controller-DashedSentence,DashedSentence,3,der,1637072238013,40,151,1,7,,,,175,false,Dann verhandelte der Minister mit dem Präsidenten und dabei besprachen sie genauere Details.,Any addtional parameters were appended as additional columns
1637073641,c6c58a4e2da5ed0040e8e1fbcf513083,15,0,block1,NULL,Controller-DashedSentence,DashedSentence,4,Minister,1637072238013,40,151,1,7,,,,177,false,Dann verhandelte der Minister mit dem Präsidenten und dabei besprachen sie genauere Details.,Any addtional parameters were appended as additional columns
1637073641,c6c58a4e2da5ed0040e8e1fbcf513083,15,0,block1,NULL,Controller-DashedSentence,DashedSentence,5,mit,1637072238013,40,151,1,7,,,,208,false,Dann verhandelte der Minister mit dem Präsidenten und dabei besprachen sie genauere Details.,Any addtional parameters were appended as additional columns
1637073641,c6c58a4e2da5ed0040e8e1fbcf513083,15,0,block1,NULL,Controller-DashedSentence,DashedSentence,6,dem,1637072238013,40,151,1,7,,,,209,false,Dann verhandelte der Minister mit dem Präsidenten und dabei besprachen sie genauere Details.,Any addtional parameters were appended as additional columns
1637073641,c6c58a4e2da5ed0040e8e1fbcf513083,15,0,block1,NULL,Controller-DashedSentence,DashedSentence,7,Präsidenten,1637072238013,40,151,1,7,,,,190,false,Dann verhandelte der Minister mit dem Präsidenten und dabei besprachen sie genauere Details.,Any addtional parameters were appended as additional columns
1637073641,c6c58a4e2da5ed0040e8e1fbcf513083,15,0,block1,NULL,Controller-DashedSentence,DashedSentence,8,und,1637072238013,40,151,1,7,,,,289,false,Dann verhandelte der Minister mit dem Präsidenten und dabei besprachen sie genauere Details.,Any addtional parameters were appended as additional columns
1637073641,c6c58a4e2da5ed0040e8e1fbcf513083,15,0,block1,NULL,Controller-DashedSentence,DashedSentence,9,dabei,1637072238013,40,151,1,7,,,,208,false,Dann verhandelte der Minister mit dem Präsidenten und dabei besprachen sie genauere Details.,Any addtional parameters were appended as additional columns
1637073641,c6c58a4e2da5ed0040e8e1fbcf513083,15,0,block1,NULL,Controller-DashedSentence,DashedSentence,10,besprachen,1637072238013,40,151,1,7,,,,223,false,Dann verhandelte der Minister mit dem Präsidenten und dabei besprachen sie genauere Details.,Any addtional parameters were appended as additional columns
1637073641,c6c58a4e2da5ed0040e8e1fbcf513083,15,0,block1,NULL,Controller-DashedSentence,DashedSentence,11,sie,1637072238013,40,151,1,7,,,,225,false,Dann verhandelte der Minister mit dem Präsidenten und dabei besprachen sie genauere Details.,Any addtional parameters were appended as additional columns
1637073641,c6c58a4e2da5ed0040e8e1fbcf513083,15,0,block1,NULL,Controller-DashedSentence,DashedSentence,12,genauere,1637072238013,40,151,1,7,,,,208,false,Dann verhandelte der Minister mit dem Präsidenten und dabei besprachen sie genauere Details.,Any addtional parameters were appended as additional columns
1637073641,c6c58a4e2da5ed0040e8e1fbcf513083,15,0,block1,NULL,Controller-DashedSentence,DashedSentence,13,Details.,1637072238013,40,151,1,7,,,,223,false,Dann verhandelte der Minister mit dem Präsidenten und dabei besprachen sie genauere Details.,Any addtional parameters were appended as additional columns
# 20. Comments.
1637073641,c6c58a4e2da5ed0040e8e1fbcf513083,15,0,block1,NULL,PennController,17,_Trial_,End,1637072238015,40,151,1,7,,,,NULL
1637073641,c6c58a4e2da5ed0040e8e1fbcf513083,16,0,block1,NULL,PennController,18,_Trial_,Start,1637072238018,12,153,1,6,,,,NULL
1637073641,c6c58a4e2da5ed0040e8e1fbcf513083,16,0,block1,NULL,PennController,18,_Header_,Start,1637072238018,12,153,1,6,,,,NULL
1637073641,c6c58a4e2da5ed0040e8e1fbcf513083,16,0,block1,NULL,PennController,18,_Header_,End,1637072238019,12,153,1,6,,,,NULL
# 20. Reading time.
# 21. Newline?.
# 22. Sentence (or sentence MD5).
# 23. Comments.
1637073641,c6c58a4e2da5ed0040e8e1fbcf513083,16,0,block1,NULL,Controller-DashedSentence,DashedSentence,1,Daraufhin,1637072247646,12,153,1,6,,,,208,false,Daraufhin färbte der Paparazzi die Schauspielerin und ferner sagte er%2C dass er sich so nicht behandeln lasse.,Any addtional parameters were appended as additional columns
1637073641,c6c58a4e2da5ed0040e8e1fbcf513083,16,0,block1,NULL,Controller-DashedSentence,DashedSentence,2,färbte,1637072247646,12,153,1,6,,,,206,false,Daraufhin färbte der Paparazzi die Schauspielerin und ferner sagte er%2C dass er sich so nicht behandeln lasse.,Any addtional parameters were appended as additional columns
1637073641,c6c58a4e2da5ed0040e8e1fbcf513083,16,0,block1,NULL,Controller-DashedSentence,DashedSentence,3,der,1637072247646,12,153,1,6,,,,193,false,Daraufhin färbte der Paparazzi die Schauspielerin und ferner sagte er%2C dass er sich so nicht behandeln lasse.,Any addtional parameters were appended as additional columns
1637073641,c6c58a4e2da5ed0040e8e1fbcf513083,16,0,block1,NULL,Controller-DashedSentence,DashedSentence,4,Paparazzi,1637072247646,12,153,1,6,,,,160,false,Daraufhin färbte der Paparazzi die Schauspielerin und ferner sagte er%2C dass er sich so nicht behandeln lasse.,Any addtional parameters were appended as additional columns
1637073641,c6c58a4e2da5ed0040e8e1fbcf513083,16,0,block1,NULL,Controller-DashedSentence,DashedSentence,5,die,1637072247646,12,153,1,6,,,,274,false,Daraufhin färbte der Paparazzi die Schauspielerin und ferner sagte er%2C dass er sich so nicht behandeln lasse.,Any addtional parameters were appended as additional columns
1637073641,c6c58a4e2da5ed0040e8e1fbcf513083,16,0,block1,NULL,Controller-DashedSentence,DashedSentence,6,Schauspielerin,1637072247646,12,153,1,6,,,,238,false,Daraufhin färbte der Paparazzi die Schauspielerin und ferner sagte er%2C dass er sich so nicht behandeln lasse.,Any addtional parameters were appended as additional columns
1637073641,c6c58a4e2da5ed0040e8e1fbcf513083,16,0,block1,NULL,Controller-DashedSentence,DashedSentence,7,und,1637072247646,12,153,1,6,,,,240,false,Daraufhin färbte der Paparazzi die Schauspielerin und ferner sagte er%2C dass er sich so nicht behandeln lasse.,Any addtional parameters were appended as additional columns
1637073641,c6c58a4e2da5ed0040e8e1fbcf513083,16,0,block1,NULL,Controller-DashedSentence,DashedSentence,8,ferner,1637072247646,12,153,1,6,,,,177,false,Daraufhin färbte der Paparazzi die Schauspielerin und ferner sagte er%2C dass er sich so nicht behandeln lasse.,Any addtional parameters were appended as additional columns
1637073641,c6c58a4e2da5ed0040e8e1fbcf513083,16,0,block1,NULL,Controller-DashedSentence,DashedSentence,9,sagte,1637072247646,12,153,1,6,,,,255,false,Daraufhin färbte der Paparazzi die Schauspielerin und ferner sagte er%2C dass er sich so nicht behandeln lasse.,Any addtional parameters were appended as additional columns
1637073641,c6c58a4e2da5ed0040e8e1fbcf513083,16,0,block1,NULL,Controller-DashedSentence,DashedSentence,10,er%2C,1637072247646,12,153,1,6,,,,241,false,Daraufhin färbte der Paparazzi die Schauspielerin und ferner sagte er%2C dass er sich so nicht behandeln lasse.,Any addtional parameters were appended as additional columns
1637073641,c6c58a4e2da5ed0040e8e1fbcf513083,16,0,block1,NULL,Controller-DashedSentence,DashedSentence,11,dass,1637072247646,12,153,1,6,,,,239,false,Daraufhin färbte der Paparazzi die Schauspielerin und ferner sagte er%2C dass er sich so nicht behandeln lasse.,Any addtional parameters were appended as additional columns
1637073641,c6c58a4e2da5ed0040e8e1fbcf513083,16,0,block1,NULL,Controller-DashedSentence,DashedSentence,12,er,1637072247646,12,153,1,6,,,,224,false,Daraufhin färbte der Paparazzi die Schauspielerin und ferner sagte er%2C dass er sich so nicht behandeln lasse.,Any addtional parameters were appended as additional columns
1637073641,c6c58a4e2da5ed0040e8e1fbcf513083,16,0,block1,NULL,Controller-DashedSentence,DashedSentence,13,sich,1637072247646,12,153,1,6,,,,241,false,Daraufhin färbte der Paparazzi die Schauspielerin und ferner sagte er%2C dass er sich so nicht behandeln lasse.,Any addtional parameters were appended as additional columns
1637073641,c6c58a4e2da5ed0040e8e1fbcf513083,16,0,block1,NULL,Controller-DashedSentence,DashedSentence,14,so,1637072247646,12,153,1,6,,,,240,false,Daraufhin färbte der Paparazzi die Schauspielerin und ferner sagte er%2C dass er sich so nicht behandeln lasse.,Any addtional parameters were appended as additional columns
1637073641,c6c58a4e2da5ed0040e8e1fbcf513083,16,0,block1,NULL,Controller-DashedSentence,DashedSentence,15,nicht,1637072247646,12,153,1,6,,,,224,false,Daraufhin färbte der Paparazzi die Schauspielerin und ferner sagte er%2C dass er sich so nicht behandeln lasse.,Any addtional parameters were appended as additional columns
1637073641,c6c58a4e2da5ed0040e8e1fbcf513083,16,0,block1,NULL,Controller-DashedSentence,DashedSentence,16,behandeln,1637072247646,12,153,1,6,,,,272,false,Daraufhin färbte der Paparazzi die Schauspielerin und ferner sagte er%2C dass er sich so nicht behandeln lasse.,Any addtional parameters were appended as additional columns
1637073641,c6c58a4e2da5ed0040e8e1fbcf513083,16,0,block1,NULL,Controller-DashedSentence,DashedSentence,17,lasse.,1637072247646,12,153,1,6,,,,255,false,Daraufhin färbte der Paparazzi die Schauspielerin und ferner sagte er%2C dass er sich so nicht behandeln lasse.,Any addtional parameters were appended as additional columns
# 20. Comments.
1637073641,c6c58a4e2da5ed0040e8e1fbcf513083,16,0,block1,NULL,PennController,18,_Trial_,End,1637072247647,12,153,1,6,,,,NULL
1637073641,c6c58a4e2da5ed0040e8e1fbcf513083,17,0,block1,NULL,PennController,19,_Trial_,Start,1637072247648,144,257,1,8,,,,NULL
1637073641,c6c58a4e2da5ed0040e8e1fbcf513083,17,0,block1,NULL,PennController,19,_Header_,Start,1637072247648,144,257,1,8,,,,NULL
1637073641,c6c58a4e2da5ed0040e8e1fbcf513083,17,0,block1,NULL,PennController,19,_Header_,End,1637072247649,144,257,1,8,,,,NULL
# 20. Reading time.
# 21. Newline?.
# 22. Sentence (or sentence MD5).
# 23. Comments.
1637073641,c6c58a4e2da5ed0040e8e1fbcf513083,17,0,block1,NULL,Controller-DashedSentence,DashedSentence,1,Am,1637072362398,144,257,1,8,,,,175,false,Am nächsten Tag informierte der Onkel den Großvater und daraufhin führte dieser ein ernstes Gespräch mit dem Teenager.,Any addtional parameters were appended as additional columns
1637073641,c6c58a4e2da5ed0040e8e1fbcf513083,17,0,block1,NULL,Controller-DashedSentence,DashedSentence,2,nächsten,1637072362398,144,257,1,8,,,,209,false,Am nächsten Tag informierte der Onkel den Großvater und daraufhin führte dieser ein ernstes Gespräch mit dem Teenager.,Any addtional parameters were appended as additional columns
1637073641,c6c58a4e2da5ed0040e8e1fbcf513083,17,0,block1,NULL,Controller-DashedSentence,DashedSentence,3,Tag,1637072362398,144,257,1,8,,,,176,false,Am nächsten Tag informierte der Onkel den Großvater und daraufhin führte dieser ein ernstes Gespräch mit dem Teenager.,Any addtional parameters were appended as additional columns
1637073641,c6c58a4e2da5ed0040e8e1fbcf513083,17,0,block1,NULL,Controller-DashedSentence,DashedSentence,4,informierte,1637072362398,144,257,1,8,,,,192,false,Am nächsten Tag informierte der Onkel den Großvater und daraufhin führte dieser ein ernstes Gespräch mit dem Teenager.,Any addtional parameters were appended as additional columns
1637073641,c6c58a4e2da5ed0040e8e1fbcf513083,17,0,block1,NULL,Controller-DashedSentence,DashedSentence,5,der,1637072362398,144,257,1,8,,,,224,false,Am nächsten Tag informierte der Onkel den Großvater und daraufhin führte dieser ein ernstes Gespräch mit dem Teenager.,Any addtional parameters were appended as additional columns
1637073641,c6c58a4e2da5ed0040e8e1fbcf513083,17,0,block1,NULL,Controller-DashedSentence,DashedSentence,6,Onkel,1637072362398,144,257,1,8,,,,176,false,Am nächsten Tag informierte der Onkel den Großvater und daraufhin führte dieser ein ernstes Gespräch mit dem Teenager.,Any addtional parameters were appended as additional columns
1637073641,c6c58a4e2da5ed0040e8e1fbcf513083,17,0,block1,NULL,Controller-DashedSentence,DashedSentence,7,den,1637072362398,144,257,1,8,,,,208,false,Am nächsten Tag informierte der Onkel den Großvater und daraufhin führte dieser ein ernstes Gespräch mit dem Teenager.,Any addtional parameters were appended as additional columns
1637073641,c6c58a4e2da5ed0040e8e1fbcf513083,17,0,block1,NULL,Controller-DashedSentence,DashedSentence,8,Großvater,1637072362398,144,257,1,8,,,,224,false,Am nächsten Tag informierte der Onkel den Großvater und daraufhin führte dieser ein ernstes Gespräch mit dem Teenager.,Any addtional parameters were appended as additional columns
1637073641,c6c58a4e2da5ed0040e8e1fbcf513083,17,0,block1,NULL,Controller-DashedSentence,DashedSentence,9,und,1637072362398,144,257,1,8,,,,224,false,Am nächsten Tag informierte der Onkel den Großvater und daraufhin führte dieser ein ernstes Gespräch mit dem Teenager.,Any addtional parameters were appended as additional columns
1637073641,c6c58a4e2da5ed0040e8e1fbcf513083,17,0,block1,NULL,Controller-DashedSentence,DashedSentence,10,daraufhin,1637072362398,144,257,1,8,,,,240,false,Am nächsten Tag informierte der Onkel den Großvater und daraufhin führte dieser ein ernstes Gespräch mit dem Teenager.,Any addtional parameters were appended as additional columns
1637073641,c6c58a4e2da5ed0040e8e1fbcf513083,17,0,block1,NULL,Controller-DashedSentence,DashedSentence,11,führte,1637072362398,144,257,1,8,,,,176,false,Am nächsten Tag informierte der Onkel den Großvater und daraufhin führte dieser ein ernstes Gespräch mit dem Teenager.,Any addtional parameters were appended as additional columns
1637073641,c6c58a4e2da5ed0040e8e1fbcf513083,17,0,block1,NULL,Controller-DashedSentence,DashedSentence,12,dieser,1637072362398,144,257,1,8,,,,192,false,Am nächsten Tag informierte der Onkel den Großvater und daraufhin führte dieser ein ernstes Gespräch mit dem Teenager.,Any addtional parameters were appended as additional columns
1637073641,c6c58a4e2da5ed0040e8e1fbcf513083,17,0,block1,NULL,Controller-DashedSentence,DashedSentence,13,ein,1637072362398,144,257,1,8,,,,224,false,Am nächsten Tag informierte der Onkel den Großvater und daraufhin führte dieser ein ernstes Gespräch mit dem Teenager.,Any addtional parameters were appended as additional columns
1637073641,c6c58a4e2da5ed0040e8e1fbcf513083,17,0,block1,NULL,Controller-DashedSentence,DashedSentence,14,ernstes,1637072362398,144,257,1,8,,,,224,false,Am nächsten Tag informierte der Onkel den Großvater und daraufhin führte dieser ein ernstes Gespräch mit dem Teenager.,Any addtional parameters were appended as additional columns
1637073641,c6c58a4e2da5ed0040e8e1fbcf513083,17,0,block1,NULL,Controller-DashedSentence,DashedSentence,15,Gespräch,1637072362398,144,257,1,8,,,,208,false,Am nächsten Tag informierte der Onkel den Großvater und daraufhin führte dieser ein ernstes Gespräch mit dem Teenager.,Any addtional parameters were appended as additional columns
1637073641,c6c58a4e2da5ed0040e8e1fbcf513083,17,0,block1,NULL,Controller-DashedSentence,DashedSentence,16,mit,1637072362398,144,257,1,8,,,,415,false,Am nächsten Tag informierte der Onkel den Großvater und daraufhin führte dieser ein ernstes Gespräch mit dem Teenager.,Any addtional parameters were appended as additional columns
1637073641,c6c58a4e2da5ed0040e8e1fbcf513083,17,0,block1,NULL,Controller-DashedSentence,DashedSentence,17,dem,1637072362398,144,257,1,8,,,,305,false,Am nächsten Tag informierte der Onkel den Großvater und daraufhin führte dieser ein ernstes Gespräch mit dem Teenager.,Any addtional parameters were appended as additional columns
1637073641,c6c58a4e2da5ed0040e8e1fbcf513083,17,0,block1,NULL,Controller-DashedSentence,DashedSentence,18,Teenager.,1637072362398,144,257,1,8,,,,336,false,Am nächsten Tag informierte der Onkel den Großvater und daraufhin führte dieser ein ernstes Gespräch mit dem Teenager.,Any addtional parameters were appended as additional columns
# 20. Comments.
1637073641,c6c58a4e2da5ed0040e8e1fbcf513083,17,0,block1,NULL,PennController,19,_Trial_,End,1637072362399,144,257,1,8,,,,NULL
1637073641,c6c58a4e2da5ed0040e8e1fbcf513083,18,0,block1,NULL,PennController,20,_Trial_,Start,1637072362401,23,153,1,6,K,Konnte der Junge sich für einen Apfel entscheiden?,continuation,NULL
1637073641,c6c58a4e2da5ed0040e8e1fbcf513083,18,0,block1,NULL,PennController,20,_Header_,Start,1637072362401,23,153,1,6,K,Konnte der Junge sich für einen Apfel entscheiden?,continuation,NULL
1637073641,c6c58a4e2da5ed0040e8e1fbcf513083,18,0,block1,NULL,PennController,20,_Header_,End,1637072362401,23,153,1,6,K,Konnte der Junge sich für einen Apfel entscheiden?,continuation,NULL
# 20. Reading time.
# 21. Newline?.
# 22. Sentence (or sentence MD5).
# 23. Comments.
1637073641,c6c58a4e2da5ed0040e8e1fbcf513083,18,0,block1,NULL,Controller-DashedSentence,DashedSentence,1,Sofort,1637072368350,23,153,1,6,K,Konnte der Junge sich für einen Apfel entscheiden?,continuation,304,false,Sofort schlug der Junge den Korb und dann entschied er sich für einen großen roten Apfel.,Any addtional parameters were appended as additional columns
1637073641,c6c58a4e2da5ed0040e8e1fbcf513083,18,0,block1,NULL,Controller-DashedSentence,DashedSentence,2,schlug,1637072368350,23,153,1,6,K,Konnte der Junge sich für einen Apfel entscheiden?,continuation,144,false,Sofort schlug der Junge den Korb und dann entschied er sich für einen großen roten Apfel.,Any addtional parameters were appended as additional columns
1637073641,c6c58a4e2da5ed0040e8e1fbcf513083,18,0,block1,NULL,Controller-DashedSentence,DashedSentence,3,der,1637072368350,23,153,1,6,K,Konnte der Junge sich für einen Apfel entscheiden?,continuation,160,false,Sofort schlug der Junge den Korb und dann entschied er sich für einen großen roten Apfel.,Any addtional parameters were appended as additional columns
1637073641,c6c58a4e2da5ed0040e8e1fbcf513083,18,0,block1,NULL,Controller-DashedSentence,DashedSentence,4,Junge,1637072368350,23,153,1,6,K,Konnte der Junge sich für einen Apfel entscheiden?,continuation,192,false,Sofort schlug der Junge den Korb und dann entschied er sich für einen großen roten Apfel.,Any addtional parameters were appended as additional columns
1637073641,c6c58a4e2da5ed0040e8e1fbcf513083,18,0,block1,NULL,Controller-DashedSentence,DashedSentence,5,den,1637072368350,23,153,1,6,K,Konnte der Junge sich für einen Apfel entscheiden?,continuation,208,false,Sofort schlug der Junge den Korb und dann entschied er sich für einen großen roten Apfel.,Any addtional parameters were appended as additional columns
1637073641,c6c58a4e2da5ed0040e8e1fbcf513083,18,0,block1,NULL,Controller-DashedSentence,DashedSentence,6,Korb,1637072368350,23,153,1,6,K,Konnte der Junge sich für einen Apfel entscheiden?,continuation,176,false,Sofort schlug der Junge den Korb und dann entschied er sich für einen großen roten Apfel.,Any addtional parameters were appended as additional columns
1637073641,c6c58a4e2da5ed0040e8e1fbcf513083,18,0,block1,NULL,Controller-DashedSentence,DashedSentence,7,und,1637072368350,23,153,1,6,K,Konnte der Junge sich für einen Apfel entscheiden?,continuation,192,false,Sofort schlug der Junge den Korb und dann entschied er sich für einen großen roten Apfel.,Any addtional parameters were appended as additional columns
1637073641,c6c58a4e2da5ed0040e8e1fbcf513083,18,0,block1,NULL,Controller-DashedSentence,DashedSentence,8,dann,1637072368350,23,153,1,6,K,Konnte der Junge sich für einen Apfel entscheiden?,continuation,144,false,Sofort schlug der Junge den Korb und dann entschied er sich für einen großen roten Apfel.,Any addtional parameters were appended as additional columns
1637073641,c6c58a4e2da5ed0040e8e1fbcf513083,18,0,block1,NULL,Controller-DashedSentence,DashedSentence,9,entschied,1637072368350,23,153,1,6,K,Konnte der Junge sich für einen Apfel entscheiden?,continuation,256,false,Sofort schlug der Junge den Korb und dann entschied er sich für einen großen roten Apfel.,Any addtional parameters were appended as additional columns
1637073641,c6c58a4e2da5ed0040e8e1fbcf513083,18,0,block1,NULL,Controller-DashedSentence,DashedSentence,10,er,1637072368350,23,153,1,6,K,Konnte der Junge sich für einen Apfel entscheiden?,continuation,176,false,Sofort schlug der Junge den Korb und dann entschied er sich für einen großen roten Apfel.,Any addtional parameters were appended as additional columns
1637073641,c6c58a4e2da5ed0040e8e1fbcf513083,18,0,block1,NULL,Controller-DashedSentence,DashedSentence,11,sich,1637072368350,23,153,1,6,K,Konnte der Junge sich für einen Apfel entscheiden?,continuation,224,false,Sofort schlug der Junge den Korb und dann entschied er sich für einen großen roten Apfel.,Any addtional parameters were appended as additional columns
1637073641,c6c58a4e2da5ed0040e8e1fbcf513083,18,0,block1,NULL,Controller-DashedSentence,DashedSentence,12,für,1637072368350,23,153,1,6,K,Konnte der Junge sich für einen Apfel entscheiden?,continuation,208,false,Sofort schlug der Junge den Korb und dann entschied er sich für einen großen roten Apfel.,Any addtional parameters were appended as additional columns
1637073641,c6c58a4e2da5ed0040e8e1fbcf513083,18,0,block1,NULL,Controller-DashedSentence,DashedSentence,13,einen,1637072368350,23,153,1,6,K,Konnte der Junge sich für einen Apfel entscheiden?,continuation,240,false,Sofort schlug der Junge den Korb und dann entschied er sich für einen großen roten Apfel.,Any addtional parameters were appended as additional columns
1637073641,c6c58a4e2da5ed0040e8e1fbcf513083,18,0,block1,NULL,Controller-DashedSentence,DashedSentence,14,großen,1637072368350,23,153,1,6,K,Konnte der Junge sich für einen Apfel entscheiden?,continuation,304,false,Sofort schlug der Junge den Korb und dann entschied er sich für einen großen roten Apfel.,Any addtional parameters were appended as additional columns
1637073641,c6c58a4e2da5ed0040e8e1fbcf513083,18,0,block1,NULL,Controller-DashedSentence,DashedSentence,15,roten,1637072368350,23,153,1,6,K,Konnte der Junge sich für einen Apfel entscheiden?,continuation,256,false,Sofort schlug der Junge den Korb und dann entschied er sich für einen großen roten Apfel.,Any addtional parameters were appended as additional columns
1637073641,c6c58a4e2da5ed0040e8e1fbcf513083,18,0,block1,NULL,Controller-DashedSentence,DashedSentence,16,Apfel.,1637072368350,23,153,1,6,K,Konnte der Junge sich für einen Apfel entscheiden?,continuation,288,false,Sofort schlug der Junge den Korb und dann entschied er sich für einen großen roten Apfel.,Any addtional parameters were appended as additional columns
# 20. Comments.
1637073641,c6c58a4e2da5ed0040e8e1fbcf513083,18,0,block1,NULL,Canvas,ComprehensionQuestion,Print,NA,1637072368352,23,153,1,6,K,Konnte der Junge sich für einen Apfel entscheiden?,continuation,NULL
1637073641,c6c58a4e2da5ed0040e8e1fbcf513083,18,0,block1,NULL,Key,ComprehensionDecide,PressedKey,K,1637072371902,23,153,1,6,K,Konnte der Junge sich für einen Apfel entscheiden?,continuation,Wait success
1637073641,c6c58a4e2da5ed0040e8e1fbcf513083,18,0,block1,NULL,PennController,20,_Trial_,End,1637072371903,23,153,1,6,K,Konnte der Junge sich für einen Apfel entscheiden?,continuation,NULL
1637073641,c6c58a4e2da5ed0040e8e1fbcf513083,19,0,block1,NULL,PennController,21,_Trial_,Start,1637072371904,20,151,1,6,,,,NULL
1637073641,c6c58a4e2da5ed0040e8e1fbcf513083,19,0,block1,NULL,PennController,21,_Header_,Start,1637072371904,20,151,1,6,,,,NULL
1637073641,c6c58a4e2da5ed0040e8e1fbcf513083,19,0,block1,NULL,PennController,21,_Header_,End,1637072371904,20,151,1,6,,,,NULL
# 20. Reading time.
# 21. Newline?.
# 22. Sentence (or sentence MD5).
# 23. Comments.
1637073641,c6c58a4e2da5ed0040e8e1fbcf513083,19,0,block1,NULL,Controller-DashedSentence,DashedSentence,1,Daraufhin,1637072514766,20,151,1,6,,,,191,false,Daraufhin bestach der Mopedfahrer den Polizisten und außerdem entschuldigte er sich für den Unfall.,Any addtional parameters were appended as additional columns
1637073641,c6c58a4e2da5ed0040e8e1fbcf513083,19,0,block1,NULL,Controller-DashedSentence,DashedSentence,2,bestach,1637072514766,20,151,1,6,,,,145,false,Daraufhin bestach der Mopedfahrer den Polizisten und außerdem entschuldigte er sich für den Unfall.,Any addtional parameters were appended as additional columns
1637073641,c6c58a4e2da5ed0040e8e1fbcf513083,19,0,block1,NULL,Controller-DashedSentence,DashedSentence,3,der,1637072514766,20,151,1,6,,,,143,false,Daraufhin bestach der Mopedfahrer den Polizisten und außerdem entschuldigte er sich für den Unfall.,Any addtional parameters were appended as additional columns
1637073641,c6c58a4e2da5ed0040e8e1fbcf513083,19,0,block1,NULL,Controller-DashedSentence,DashedSentence,4,Mopedfahrer,1637072514766,20,151,1,6,,,,193,false,Daraufhin bestach der Mopedfahrer den Polizisten und außerdem entschuldigte er sich für den Unfall.,Any addtional parameters were appended as additional columns
1637073641,c6c58a4e2da5ed0040e8e1fbcf513083,19,0,block1,NULL,Controller-DashedSentence,DashedSentence,5,den,1637072514766,20,151,1,6,,,,175,false,Daraufhin bestach der Mopedfahrer den Polizisten und außerdem entschuldigte er sich für den Unfall.,Any addtional parameters were appended as additional columns
1637073641,c6c58a4e2da5ed0040e8e1fbcf513083,19,0,block1,NULL,Controller-DashedSentence,DashedSentence,6,Polizisten,1637072514766,20,151,1,6,,,,176,false,Daraufhin bestach der Mopedfahrer den Polizisten und außerdem entschuldigte er sich für den Unfall.,Any addtional parameters were appended as additional columns
1637073641,c6c58a4e2da5ed0040e8e1fbcf513083,19,0,block1,NULL,Controller-DashedSentence,DashedSentence,7,und,1637072514766,20,151,1,6,,,,208,false,Daraufhin bestach der Mopedfahrer den Polizisten und außerdem entschuldigte er sich für den Unfall.,Any addtional parameters were appended as additional columns
1637073641,c6c58a4e2da5ed0040e8e1fbcf513083,19,0,block1,NULL,Controller-DashedSentence,DashedSentence,8,außerdem,1637072514766,20,151,1,6,,,,176,false,Daraufhin bestach der Mopedfahrer den Polizisten und außerdem entschuldigte er sich für den Unfall.,Any addtional parameters were appended as additional columns
1637073641,c6c58a4e2da5ed0040e8e1fbcf513083,19,0,block1,NULL,Controller-DashedSentence,DashedSentence,9,entschuldigte,1637072514766,20,151,1,6,,,,208,false,Daraufhin bestach der Mopedfahrer den Polizisten und außerdem entschuldigte er sich für den Unfall.,Any addtional parameters were appended as additional columns
1637073641,c6c58a4e2da5ed0040e8e1fbcf513083,19,0,block1,NULL,Controller-DashedSentence,DashedSentence,10,er,1637072514766,20,151,1,6,,,,176,false,Daraufhin bestach der Mopedfahrer den Polizisten und außerdem entschuldigte er sich für den Unfall.,Any addtional parameters were appended as additional columns
1637073641,c6c58a4e2da5ed0040e8e1fbcf513083,19,0,block1,NULL,Controller-DashedSentence,DashedSentence,11,sich,1637072514766,20,151,1,6,,,,240,false,Daraufhin bestach der Mopedfahrer den Polizisten und außerdem entschuldigte er sich für den Unfall.,Any addtional parameters were appended as additional columns
1637073641,c6c58a4e2da5ed0040e8e1fbcf513083,19,0,block1,NULL,Controller-DashedSentence,DashedSentence,12,für,1637072514766,20,151,1,6,,,,192,false,Daraufhin bestach der Mopedfahrer den Polizisten und außerdem entschuldigte er sich für den Unfall.,Any addtional parameters were appended as additional columns
1637073641,c6c58a4e2da5ed0040e8e1fbcf513083,19,0,block1,NULL,Controller-DashedSentence,DashedSentence,13,den,1637072514766,20,151,1,6,,,,304,false,Daraufhin bestach der Mopedfahrer den Polizisten und außerdem entschuldigte er sich für den Unfall.,Any addtional parameters were appended as additional columns
1637073641,c6c58a4e2da5ed0040e8e1fbcf513083,19,0,block1,NULL,Controller-DashedSentence,DashedSentence,14,Unfall.,1637072514766,20,151,1,6,,,,208,false,Daraufhin bestach der Mopedfahrer den Polizisten und außerdem entschuldigte er sich für den Unfall.,Any addtional parameters were appended as additional columns
# 20. Comments.
1637073641,c6c58a4e2da5ed0040e8e1fbcf513083,19,0,block1,NULL,PennController,21,_Trial_,End,1637072514768,20,151,1,6,,,,NULL
1637073641,c6c58a4e2da5ed0040e8e1fbcf513083,20,0,block1,NULL,PennController,22,_Trial_,Start,1637072514768,55,151,1,6,D,War das Thema der Ausstellung Malerei?,paragraph,NULL
1637073641,c6c58a4e2da5ed0040e8e1fbcf513083,20,0,block1,NULL,PennController,22,_Header_,Start,1637072514768,55,151,1,6,D,War das Thema der Ausstellung Malerei?,paragraph,NULL
1637073641,c6c58a4e2da5ed0040e8e1fbcf513083,20,0,block1,NULL,PennController,22,_Header_,End,1637072514769,55,151,1,6,D,War das Thema der Ausstellung Malerei?,paragraph,NULL
# 20. Reading time.
# 21. Newline?.
# 22. Sentence (or sentence MD5).
# 23. Comments.
1637073641,c6c58a4e2da5ed0040e8e1fbcf513083,20,0,block1,NULL,Controller-DashedSentence,DashedSentence,1,Danach,1637072523966,55,151,1,6,D,War das Thema der Ausstellung Malerei?,paragraph,191,false,Danach umarmte der Kurator die Galeristin und dabei dankte er ihr für ihre Hilfe.,Any addtional parameters were appended as additional columns
1637073641,c6c58a4e2da5ed0040e8e1fbcf513083,20,0,block1,NULL,Controller-DashedSentence,DashedSentence,2,umarmte,1637072523966,55,151,1,6,D,War das Thema der Ausstellung Malerei?,paragraph,176,false,Danach umarmte der Kurator die Galeristin und dabei dankte er ihr für ihre Hilfe.,Any addtional parameters were appended as additional columns
1637073641,c6c58a4e2da5ed0040e8e1fbcf513083,20,0,block1,NULL,Controller-DashedSentence,DashedSentence,3,der,1637072523966,55,151,1,6,D,War das Thema der Ausstellung Malerei?,paragraph,176,false,Danach umarmte der Kurator die Galeristin und dabei dankte er ihr für ihre Hilfe.,Any addtional parameters were appended as additional columns
1637073641,c6c58a4e2da5ed0040e8e1fbcf513083,20,0,block1,NULL,Controller-DashedSentence,DashedSentence,4,Kurator,1637072523966,55,151,1,6,D,War das Thema der Ausstellung Malerei?,paragraph,160,false,Danach umarmte der Kurator die Galeristin und dabei dankte er ihr für ihre Hilfe.,Any addtional parameters were appended as additional columns
1637073641,c6c58a4e2da5ed0040e8e1fbcf513083,20,0,block1,NULL,Controller-DashedSentence,DashedSentence,5,die,1637072523966,55,151,1,6,D,War das Thema der Ausstellung Malerei?,paragraph,160,false,Danach umarmte der Kurator die Galeristin und dabei dankte er ihr für ihre Hilfe.,Any addtional parameters were appended as additional columns
1637073641,c6c58a4e2da5ed0040e8e1fbcf513083,20,0,block1,NULL,Controller-DashedSentence,DashedSentence,6,Galeristin,1637072523966,55,151,1,6,D,War das Thema der Ausstellung Malerei?,paragraph,208,false,Danach umarmte der Kurator die Galeristin und dabei dankte er ihr für ihre Hilfe.,Any addtional parameters were appended as additional columns
1637073641,c6c58a4e2da5ed0040e8e1fbcf513083,20,0,block1,NULL,Controller-DashedSentence,DashedSentence,7,und,1637072523966,55,151,1,6,D,War das Thema der Ausstellung Malerei?,paragraph,176,false,Danach umarmte der Kurator die Galeristin und dabei dankte er ihr für ihre Hilfe.,Any addtional parameters were appended as additional columns
1637073641,c6c58a4e2da5ed0040e8e1fbcf513083,20,0,block1,NULL,Controller-DashedSentence,DashedSentence,8,dabei,1637072523966,55,151,1,6,D,War das Thema der Ausstellung Malerei?,paragraph,224,false,Danach umarmte der Kurator die Galeristin und dabei dankte er ihr für ihre Hilfe.,Any addtional parameters were appended as additional columns
1637073641,c6c58a4e2da5ed0040e8e1fbcf513083,20,0,block1,NULL,Controller-DashedSentence,DashedSentence,9,dankte,1637072523966,55,151,1,6,D,War das Thema der Ausstellung Malerei?,paragraph,352,false,Danach umarmte der Kurator die Galeristin und dabei dankte er ihr für ihre Hilfe.,Any addtional parameters were appended as additional columns
1637073641,c6c58a4e2da5ed0040e8e1fbcf513083,20,0,block1,NULL,Controller-DashedSentence,DashedSentence,10,er,1637072523966,55,151,1,6,D,War das Thema der Ausstellung Malerei?,paragraph,256,false,Danach umarmte der Kurator die Galeristin und dabei dankte er ihr für ihre Hilfe.,Any addtional parameters were appended as additional columns
1637073641,c6c58a4e2da5ed0040e8e1fbcf513083,20,0,block1,NULL,Controller-DashedSentence,DashedSentence,11,ihr,1637072523966,55,151,1,6,D,War das Thema der Ausstellung Malerei?,paragraph,192,false,Danach umarmte der Kurator die Galeristin und dabei dankte er ihr für ihre Hilfe.,Any addtional parameters were appended as additional columns
1637073641,c6c58a4e2da5ed0040e8e1fbcf513083,20,0,block1,NULL,Controller-DashedSentence,DashedSentence,12,für,1637072523966,55,151,1,6,D,War das Thema der Ausstellung Malerei?,paragraph,208,false,Danach umarmte der Kurator die Galeristin und dabei dankte er ihr für ihre Hilfe.,Any addtional parameters were appended as additional columns
1637073641,c6c58a4e2da5ed0040e8e1fbcf513083,20,0,block1,NULL,Controller-DashedSentence,DashedSentence,13,ihre,1637072523966,55,151,1,6,D,War das Thema der Ausstellung Malerei?,paragraph,225,false,Danach umarmte der Kurator die Galeristin und dabei dankte er ihr für ihre Hilfe.,Any addtional parameters were appended as additional columns
1637073641,c6c58a4e2da5ed0040e8e1fbcf513083,20,0,block1,NULL,Controller-DashedSentence,DashedSentence,14,Hilfe.,1637072523966,55,151,1,6,D,War das Thema der Ausstellung Malerei?,paragraph,191,false,Danach umarmte der Kurator die Galeristin und dabei dankte er ihr für ihre Hilfe.,Any addtional parameters were appended as additional columns
# 20. Comments.
1637073641,c6c58a4e2da5ed0040e8e1fbcf513083,20,0,block1,NULL,Canvas,ComprehensionQuestion,Print,NA,1637072523967,55,151,1,6,D,War das Thema der Ausstellung Malerei?,paragraph,NULL
1637073641,c6c58a4e2da5ed0040e8e1fbcf513083,20,0,block1,NULL,Key,ComprehensionDecide,PressedKey,D,1637072527134,55,151,1,6,D,War das Thema der Ausstellung Malerei?,paragraph,Wait success
1637073641,c6c58a4e2da5ed0040e8e1fbcf513083,20,0,block1,NULL,PennController,22,_Trial_,End,1637072527136,55,151,1,6,D,War das Thema der Ausstellung Malerei?,paragraph,NULL
1637073641,c6c58a4e2da5ed0040e8e1fbcf513083,21,0,block1,NULL,PennController,23,_Trial_,Start,1637072527137,126,256,1,6,K,Ist der Historiker in die Bibliothek gegangen?,paragraph,NULL
1637073641,c6c58a4e2da5ed0040e8e1fbcf513083,21,0,block1,NULL,PennController,23,_Header_,Start,1637072527137,126,256,1,6,K,Ist der Historiker in die Bibliothek gegangen?,paragraph,NULL
1637073641,c6c58a4e2da5ed0040e8e1fbcf513083,21,0,block1,NULL,PennController,23,_Header_,End,1637072527137,126,256,1,6,K,Ist der Historiker in die Bibliothek gegangen?,paragraph,NULL
# 20. Reading time.
# 21. Newline?.
# 22. Sentence (or sentence MD5).
# 23. Comments.
1637073641,c6c58a4e2da5ed0040e8e1fbcf513083,21,0,block1,NULL,Controller-DashedSentence,DashedSentence,1,Zuhause,1637072598110,126,256,1,6,K,Ist der Historiker in die Bibliothek gegangen?,paragraph,256,false,Zuhause las der Historiker die Notizen und dann versuchte er sie zu ordnen.,Any addtional parameters were appended as additional columns
1637073641,c6c58a4e2da5ed0040e8e1fbcf513083,21,0,block1,NULL,Controller-DashedSentence,DashedSentence,2,las,1637072598110,126,256,1,6,K,Ist der Historiker in die Bibliothek gegangen?,paragraph,225,false,Zuhause las der Historiker die Notizen und dann versuchte er sie zu ordnen.,Any addtional parameters were appended as additional columns
1637073641,c6c58a4e2da5ed0040e8e1fbcf513083,21,0,block1,NULL,Controller-DashedSentence,DashedSentence,3,der,1637072598110,126,256,1,6,K,Ist der Historiker in die Bibliothek gegangen?,paragraph,192,false,Zuhause las der Historiker die Notizen und dann versuchte er sie zu ordnen.,Any addtional parameters were appended as additional columns
1637073641,c6c58a4e2da5ed0040e8e1fbcf513083,21,0,block1,NULL,Controller-DashedSentence,DashedSentence,4,Historiker,1637072598110,126,256,1,6,K,Ist der Historiker in die Bibliothek gegangen?,paragraph,223,false,Zuhause las der Historiker die Notizen und dann versuchte er sie zu ordnen.,Any addtional parameters were appended as additional columns
1637073641,c6c58a4e2da5ed0040e8e1fbcf513083,21,0,block1,NULL,Controller-DashedSentence,DashedSentence,5,die,1637072598110,126,256,1,6,K,Ist der Historiker in die Bibliothek gegangen?,paragraph,224,false,Zuhause las der Historiker die Notizen und dann versuchte er sie zu ordnen.,Any addtional parameters were appended as additional columns
1637073641,c6c58a4e2da5ed0040e8e1fbcf513083,21,0,block1,NULL,Controller-DashedSentence,DashedSentence,6,Notizen,1637072598110,126,256,1,6,K,Ist der Historiker in die Bibliothek gegangen?,paragraph,209,false,Zuhause las der Historiker die Notizen und dann versuchte er sie zu ordnen.,Any addtional parameters were appended as additional columns
1637073641,c6c58a4e2da5ed0040e8e1fbcf513083,21,0,block1,NULL,Controller-DashedSentence,DashedSentence,7,und,1637072598110,126,256,1,6,K,Ist der Historiker in die Bibliothek gegangen?,paragraph,255,false,Zuhause las der Historiker die Notizen und dann versuchte er sie zu ordnen.,Any addtional parameters were appended as additional columns
1637073641,c6c58a4e2da5ed0040e8e1fbcf513083,21,0,block1,NULL,Controller-DashedSentence,DashedSentence,8,dann,1637072598110,126,256,1,6,K,Ist der Historiker in die Bibliothek gegangen?,paragraph,208,false,Zuhause las der Historiker die Notizen und dann versuchte er sie zu ordnen.,Any addtional parameters were appended as additional columns
1637073641,c6c58a4e2da5ed0040e8e1fbcf513083,21,0,block1,NULL,Controller-DashedSentence,DashedSentence,9,versuchte,1637072598110,126,256,1,6,K,Ist der Historiker in die Bibliothek gegangen?,paragraph,241,false,Zuhause las der Historiker die Notizen und dann versuchte er sie zu ordnen.,Any addtional parameters were appended as additional columns
1637073641,c6c58a4e2da5ed0040e8e1fbcf513083,21,0,block1,NULL,Controller-DashedSentence,DashedSentence,10,er,1637072598110,126,256,1,6,K,Ist der Historiker in die Bibliothek gegangen?,paragraph,272,false,Zuhause las der Historiker die Notizen und dann versuchte er sie zu ordnen.,Any addtional parameters were appended as additional columns
1637073641,c6c58a4e2da5ed0040e8e1fbcf513083,21,0,block1,NULL,Controller-DashedSentence,DashedSentence,11,sie,1637072598110,126,256,1,6,K,Ist der Historiker in die Bibliothek gegangen?,paragraph,255,false,Zuhause las der Historiker die Notizen und dann versuchte er sie zu ordnen.,Any addtional parameters were appended as additional columns
1637073641,c6c58a4e2da5ed0040e8e1fbcf513083,21,0,block1,NULL,Controller-DashedSentence,DashedSentence,12,zu,1637072598110,126,256,1,6,K,Ist der Historiker in die Bibliothek gegangen?,paragraph,273,false,Zuhause las der Historiker die Notizen und dann versuchte er sie zu ordnen.,Any addtional parameters were appended as additional columns
1637073641,c6c58a4e2da5ed0040e8e1fbcf513083,21,0,block1,NULL,Controller-DashedSentence,DashedSentence,13,ordnen.,1637072598110,126,256,1,6,K,Ist der Historiker in die Bibliothek gegangen?,paragraph,223,false,Zuhause las der Historiker die Notizen und dann versuchte er sie zu ordnen.,Any addtional parameters were appended as additional columns
# 20. Comments.
1637073641,c6c58a4e2da5ed0040e8e1fbcf513083,21,0,block1,NULL,Canvas,ComprehensionQuestion,Print,NA,1637072598112,126,256,1,6,K,Ist der Historiker in die Bibliothek gegangen?,paragraph,NULL
1637073641,c6c58a4e2da5ed0040e8e1fbcf513083,21,0,block1,NULL,Key,ComprehensionDecide,PressedKey,K,1637072601870,126,256,1,6,K,Ist der Historiker in die Bibliothek gegangen?,paragraph,Wait success
1637073641,c6c58a4e2da5ed0040e8e1fbcf513083,21,0,block1,NULL,PennController,23,_Trial_,End,1637072601871,126,256,1,6,K,Ist der Historiker in die Bibliothek gegangen?,paragraph,NULL
1637073641,c6c58a4e2da5ed0040e8e1fbcf513083,22,0,block1,NULL,PennController,24,_Trial_,Start,1637072601873,54,153,1,6,,,,NULL
1637073641,c6c58a4e2da5ed0040e8e1fbcf513083,22,0,block1,NULL,PennController,24,_Header_,Start,1637072601873,54,153,1,6,,,,NULL
1637073641,c6c58a4e2da5ed0040e8e1fbcf513083,22,0,block1,NULL,PennController,24,_Header_,End,1637072601873,54,153,1,6,,,,NULL
# 20. Reading time.
# 21. Newline?.
# 22. Sentence (or sentence MD5).
# 23. Comments.
1637073641,c6c58a4e2da5ed0040e8e1fbcf513083,22,0,block1,NULL,Controller-DashedSentence,DashedSentence,1,Dann,1637072610270,54,153,1,6,,,,208,false,Dann kaufte der Gitarrist die Agentin und dann ging er schnell zur Bühne.,Any addtional parameters were appended as additional columns
1637073641,c6c58a4e2da5ed0040e8e1fbcf513083,22,0,block1,NULL,Controller-DashedSentence,DashedSentence,2,kaufte,1637072610270,54,153,1,6,,,,225,false,Dann kaufte der Gitarrist die Agentin und dann ging er schnell zur Bühne.,Any addtional parameters were appended as additional columns
1637073641,c6c58a4e2da5ed0040e8e1fbcf513083,22,0,block1,NULL,Controller-DashedSentence,DashedSentence,3,der,1637072610270,54,153,1,6,,,,622,false,Dann kaufte der Gitarrist die Agentin und dann ging er schnell zur Bühne.,Any addtional parameters were appended as additional columns
1637073641,c6c58a4e2da5ed0040e8e1fbcf513083,22,0,block1,NULL,Controller-DashedSentence,DashedSentence,4,Gitarrist,1637072610270,54,153,1,6,,,,209,false,Dann kaufte der Gitarrist die Agentin und dann ging er schnell zur Bühne.,Any addtional parameters were appended as additional columns
1637073641,c6c58a4e2da5ed0040e8e1fbcf513083,22,0,block1,NULL,Controller-DashedSentence,DashedSentence,5,die,1637072610270,54,153,1,6,,,,176,false,Dann kaufte der Gitarrist die Agentin und dann ging er schnell zur Bühne.,Any addtional parameters were appended as additional columns
1637073641,c6c58a4e2da5ed0040e8e1fbcf513083,22,0,block1,NULL,Controller-DashedSentence,DashedSentence,6,Agentin,1637072610270,54,153,1,6,,,,223,false,Dann kaufte der Gitarrist die Agentin und dann ging er schnell zur Bühne.,Any addtional parameters were appended as additional columns
1637073641,c6c58a4e2da5ed0040e8e1fbcf513083,22,0,block1,NULL,Controller-DashedSentence,DashedSentence,7,und,1637072610270,54,153,1,6,,,,272,false,Dann kaufte der Gitarrist die Agentin und dann ging er schnell zur Bühne.,Any addtional parameters were appended as additional columns
1637073641,c6c58a4e2da5ed0040e8e1fbcf513083,22,0,block1,NULL,Controller-DashedSentence,DashedSentence,8,dann,1637072610270,54,153,1,6,,,,257,false,Dann kaufte der Gitarrist die Agentin und dann ging er schnell zur Bühne.,Any addtional parameters were appended as additional columns
1637073641,c6c58a4e2da5ed0040e8e1fbcf513083,22,0,block1,NULL,Controller-DashedSentence,DashedSentence,9,ging,1637072610270,54,153,1,6,,,,239,false,Dann kaufte der Gitarrist die Agentin und dann ging er schnell zur Bühne.,Any addtional parameters were appended as additional columns
1637073641,c6c58a4e2da5ed0040e8e1fbcf513083,22,0,block1,NULL,Controller-DashedSentence,DashedSentence,10,er,1637072610270,54,153,1,6,,,,193,false,Dann kaufte der Gitarrist die Agentin und dann ging er schnell zur Bühne.,Any addtional parameters were appended as additional columns
1637073641,c6c58a4e2da5ed0040e8e1fbcf513083,22,0,block1,NULL,Controller-DashedSentence,DashedSentence,11,schnell,1637072610270,54,153,1,6,,,,224,false,Dann kaufte der Gitarrist die Agentin und dann ging er schnell zur Bühne.,Any addtional parameters were appended as additional columns
1637073641,c6c58a4e2da5ed0040e8e1fbcf513083,22,0,block1,NULL,Controller-DashedSentence,DashedSentence,12,zur,1637072610270,54,153,1,6,,,,192,false,Dann kaufte der Gitarrist die Agentin und dann ging er schnell zur Bühne.,Any addtional parameters were appended as additional columns
1637073641,c6c58a4e2da5ed0040e8e1fbcf513083,22,0,block1,NULL,Controller-DashedSentence,DashedSentence,13,Bühne.,1637072610270,54,153,1,6,,,,191,false,Dann kaufte der Gitarrist die Agentin und dann ging er schnell zur Bühne.,Any addtional parameters were appended as additional columns
# 20. Comments.
1637073641,c6c58a4e2da5ed0040e8e1fbcf513083,22,0,block1,NULL,PennController,24,_Trial_,End,1637072610272,54,153,1,6,,,,NULL
1637073641,c6c58a4e2da5ed0040e8e1fbcf513083,23,0,block1,NULL,PennController,25,_Trial_,Start,1637072610273,113,255,1,6,,,,NULL
1637073641,c6c58a4e2da5ed0040e8e1fbcf513083,23,0,block1,NULL,PennController,25,_Header_,Start,1637072610273,113,255,1,6,,,,NULL
1637073641,c6c58a4e2da5ed0040e8e1fbcf513083,23,0,block1,NULL,PennController,25,_Header_,End,1637072610273,113,255,1,6,,,,NULL
# 20. Reading time.
# 21. Newline?.
# 22. Sentence (or sentence MD5).
# 23. Comments.
1637073641,c6c58a4e2da5ed0040e8e1fbcf513083,23,0,block1,NULL,Controller-DashedSentence,DashedSentence,1,Fröhlich,1637072615454,113,255,1,6,,,,224,false,Fröhlich holte die Mutter die Karotte und danach wünschte sie den Kindern viel Spaß beim Schneemannbauen.,Any addtional parameters were appended as additional columns
1637073641,c6c58a4e2da5ed0040e8e1fbcf513083,23,0,block1,NULL,Controller-DashedSentence,DashedSentence,2,holte,1637072615454,113,255,1,6,,,,192,false,Fröhlich holte die Mutter die Karotte und danach wünschte sie den Kindern viel Spaß beim Schneemannbauen.,Any addtional parameters were appended as additional columns
1637073641,c6c58a4e2da5ed0040e8e1fbcf513083,23,0,block1,NULL,Controller-DashedSentence,DashedSentence,3,die,1637072615454,113,255,1,6,,,,224,false,Fröhlich holte die Mutter die Karotte und danach wünschte sie den Kindern viel Spaß beim Schneemannbauen.,Any addtional parameters were appended as additional columns
1637073641,c6c58a4e2da5ed0040e8e1fbcf513083,23,0,block1,NULL,Controller-DashedSentence,DashedSentence,4,Mutter,1637072615454,113,255,1,6,,,,208,false,Fröhlich holte die Mutter die Karotte und danach wünschte sie den Kindern viel Spaß beim Schneemannbauen.,Any addtional parameters were appended as additional columns
1637073641,c6c58a4e2da5ed0040e8e1fbcf513083,23,0,block1,NULL,Controller-DashedSentence,DashedSentence,5,die,1637072615454,113,255,1,6,,,,239,false,Fröhlich holte die Mutter die Karotte und danach wünschte sie den Kindern viel Spaß beim Schneemannbauen.,Any addtional parameters were appended as additional columns
1637073641,c6c58a4e2da5ed0040e8e1fbcf513083,23,0,block1,NULL,Controller-DashedSentence,DashedSentence,6,Karotte,1637072615454,113,255,1,6,,,,224,false,Fröhlich holte die Mutter die Karotte und danach wünschte sie den Kindern viel Spaß beim Schneemannbauen.,Any addtional parameters were appended as additional columns
1637073641,c6c58a4e2da5ed0040e8e1fbcf513083,23,0,block1,NULL,Controller-DashedSentence,DashedSentence,7,und,1637072615454,113,255,1,6,,,,224,false,Fröhlich holte die Mutter die Karotte und danach wünschte sie den Kindern viel Spaß beim Schneemannbauen.,Any addtional parameters were appended as additional columns
1637073641,c6c58a4e2da5ed0040e8e1fbcf513083,23,0,block1,NULL,Controller-DashedSentence,DashedSentence,8,danach,1637072615454,113,255,1,6,,,,224,false,Fröhlich holte die Mutter die Karotte und danach wünschte sie den Kindern viel Spaß beim Schneemannbauen.,Any addtional parameters were appended as additional columns
1637073641,c6c58a4e2da5ed0040e8e1fbcf513083,23,0,block1,NULL,Controller-DashedSentence,DashedSentence,9,wünschte,1637072615454,113,255,1,6,,,,208,false,Fröhlich holte die Mutter die Karotte und danach wünschte sie den Kindern viel Spaß beim Schneemannbauen.,Any addtional parameters were appended as additional columns
1637073641,c6c58a4e2da5ed0040e8e1fbcf513083,23,0,block1,NULL,Controller-DashedSentence,DashedSentence,10,sie,1637072615454,113,255,1,6,,,,241,false,Fröhlich holte die Mutter die Karotte und danach wünschte sie den Kindern viel Spaß beim Schneemannbauen.,Any addtional parameters were appended as additional columns
1637073641,c6c58a4e2da5ed0040e8e1fbcf513083,23,0,block1,NULL,Controller-DashedSentence,DashedSentence,11,den,1637072615454,113,255,1,6,,,,240,false,Fröhlich holte die Mutter die Karotte und danach wünschte sie den Kindern viel Spaß beim Schneemannbauen.,Any addtional parameters were appended as additional columns
1637073641,c6c58a4e2da5ed0040e8e1fbcf513083,23,0,block1,NULL,Controller-DashedSentence,DashedSentence,12,Kindern,1637072615454,113,255,1,6,,,,240,false,Fröhlich holte die Mutter die Karotte und danach wünschte sie den Kindern viel Spaß beim Schneemannbauen.,Any addtional parameters were appended as additional columns
1637073641,c6c58a4e2da5ed0040e8e1fbcf513083,23,0,block1,NULL,Controller-DashedSentence,DashedSentence,13,viel,1637072615454,113,255,1,6,,,,256,false,Fröhlich holte die Mutter die Karotte und danach wünschte sie den Kindern viel Spaß beim Schneemannbauen.,Any addtional parameters were appended as additional columns
1637073641,c6c58a4e2da5ed0040e8e1fbcf513083,23,0,block1,NULL,Controller-DashedSentence,DashedSentence,14,Spaß,1637072615454,113,255,1,6,,,,256,false,Fröhlich holte die Mutter die Karotte und danach wünschte sie den Kindern viel Spaß beim Schneemannbauen.,Any addtional parameters were appended as additional columns
1637073641,c6c58a4e2da5ed0040e8e1fbcf513083,23,0,block1,NULL,Controller-DashedSentence,DashedSentence,15,beim,1637072615454,113,255,1,6,,,,240,false,Fröhlich holte die Mutter die Karotte und danach wünschte sie den Kindern viel Spaß beim Schneemannbauen.,Any addtional parameters were appended as additional columns
1637073641,c6c58a4e2da5ed0040e8e1fbcf513083,23,0,block1,NULL,Controller-DashedSentence,DashedSentence,16,Schneemannbauen.,1637072615454,113,255,1,6,,,,255,false,Fröhlich holte die Mutter die Karotte und danach wünschte sie den Kindern viel Spaß beim Schneemannbauen.,Any addtional parameters were appended as additional columns
# 20. Comments.
1637073641,c6c58a4e2da5ed0040e8e1fbcf513083,23,0,block1,NULL,PennController,25,_Trial_,End,1637072615456,113,255,1,6,,,,NULL
1637073641,c6c58a4e2da5ed0040e8e1fbcf513083,24,0,block1,NULL,PennController,26,_Trial_,Start,1637072615457,128,256,1,6,,,,NULL
1637073641,c6c58a4e2da5ed0040e8e1fbcf513083,24,0,block1,NULL,PennController,26,_Header_,Start,1637072615457,128,256,1,6,,,,NULL
1637073641,c6c58a4e2da5ed0040e8e1fbcf513083,24,0,block1,NULL,PennController,26,_Header_,End,1637072615457,128,256,1,6,,,,NULL
# 20. Reading time.
# 21. Newline?.
# 22. Sentence (or sentence MD5).
# 23. Comments.
1637073641,c6c58a4e2da5ed0040e8e1fbcf513083,24,0,block1,NULL,Controller-DashedSentence,DashedSentence,1,Danach,1637072629422,128,256,1,6,,,,224,false,Danach rief der Sportler die Freundin und dann machten sie sich auf den Weg zu ihren Freunden.,Any addtional parameters were appended as additional columns
1637073641,c6c58a4e2da5ed0040e8e1fbcf513083,24,0,block1,NULL,Controller-DashedSentence,DashedSentence,2,rief,1637072629422,128,256,1,6,,,,208,false,Danach rief der Sportler die Freundin und dann machten sie sich auf den Weg zu ihren Freunden.,Any addtional parameters were appended as additional columns
1637073641,c6c58a4e2da5ed0040e8e1fbcf513083,24,0,block1,NULL,Controller-DashedSentence,DashedSentence,3,der,1637072629422,128,256,1,6,,,,224,false,Danach rief der Sportler die Freundin und dann machten sie sich auf den Weg zu ihren Freunden.,Any addtional parameters were appended as additional columns
1637073641,c6c58a4e2da5ed0040e8e1fbcf513083,24,0,block1,NULL,Controller-DashedSentence,DashedSentence,4,Sportler,1637072629422,128,256,1,6,,,,224,false,Danach rief der Sportler die Freundin und dann machten sie sich auf den Weg zu ihren Freunden.,Any addtional parameters were appended as additional columns
1637073641,c6c58a4e2da5ed0040e8e1fbcf513083,24,0,block1,NULL,Controller-DashedSentence,DashedSentence,5,die,1637072629422,128,256,1,6,,,,240,false,Danach rief der Sportler die Freundin und dann machten sie sich auf den Weg zu ihren Freunden.,Any addtional parameters were appended as additional columns
1637073641,c6c58a4e2da5ed0040e8e1fbcf513083,24,0,block1,NULL,Controller-DashedSentence,DashedSentence,6,Freundin,1637072629422,128,256,1,6,,,,208,false,Danach rief der Sportler die Freundin und dann machten sie sich auf den Weg zu ihren Freunden.,Any addtional parameters were appended as additional columns
1637073641,c6c58a4e2da5ed0040e8e1fbcf513083,24,0,block1,NULL,Controller-DashedSentence,DashedSentence,7,und,1637072629422,128,256,1,6,,,,192,false,Danach rief der Sportler die Freundin und dann machten sie sich auf den Weg zu ihren Freunden.,Any addtional parameters were appended as additional columns
1637073641,c6c58a4e2da5ed0040e8e1fbcf513083,24,0,block1,NULL,Controller-DashedSentence,DashedSentence,8,dann,1637072629422,128,256,1,6,,,,224,false,Danach rief der Sportler die Freundin und dann machten sie sich auf den Weg zu ihren Freunden.,Any addtional parameters were appended as additional columns
1637073641,c6c58a4e2da5ed0040e8e1fbcf513083,24,0,block1,NULL,Controller-DashedSentence,DashedSentence,9,machten,1637072629422,128,256,1,6,,,,225,false,Danach rief der Sportler die Freundin und dann machten sie sich auf den Weg zu ihren Freunden.,Any addtional parameters were appended as additional columns
1637073641,c6c58a4e2da5ed0040e8e1fbcf513083,24,0,block1,NULL,Controller-DashedSentence,DashedSentence,10,sie,1637072629422,128,256,1,6,,,,191,false,Danach rief der Sportler die Freundin und dann machten sie sich auf den Weg zu ihren Freunden.,Any addtional parameters were appended as additional columns
1637073641,c6c58a4e2da5ed0040e8e1fbcf513083,24,0,block1,NULL,Controller-DashedSentence,DashedSentence,11,sich,1637072629422,128,256,1,6,,,,224,false,Danach rief der Sportler die Freundin und dann machten sie sich auf den Weg zu ihren Freunden.,Any addtional parameters were appended as additional columns
