#
# Results on Fri, 12 May 2023 06:36:38 GMT
# USER AGENT: Mozilla/5.0 (Windows NT 10.0; Win64; x64) AppleWebKit/537.36 (KHTML, like Gecko) Chrome/113.0.0.0 Safari/537.36
# Design number was non-random = 4
#
# Columns below this comment are as follows:
# 1. Results reception time.
# 2. MD5 hash of participant's IP address.
# 3. Controller name.
# 4. Order number of item.
# 5. Inner element number.
# 6. Label.
# 7. Latin Square Group.
# 8. Field name.
# 9. Field value.
1683873398,eff2e30d874070de727d841357e57f3c,Form,2,0,Consent,NULL,prolific_id,6138ca54d0f9f2234e722285
1683873398,eff2e30d874070de727d841357e57f3c,Form,2,0,Consent,NULL,consent,yes
# 8. Question (NULL if none)..
# 9. Answer.
# 10. Whether or not answer was correct (NULL if N/A).
# 11. Time taken to answer..
1683873398,eff2e30d874070de727d841357e57f3c,Question,11,0,practice,NULL,<div style="width: 40em; text-align: left; font-size: 20px">Ein Interessent hatte mit einer Bankkauffrau einen Termin vereinbart%2C um über seine Finanzen zu sprechen. Die Bankkauffrau erzählte dem Interessenten%2C dass er sein Geld am Besten in einer Anleihe anlegen solle. Dem Interessenten gefiel die Idee der Anleihe gut und die Bankkauffrau erklärte ihm ausführlich%2C wie die Anleihe funktioniert. Am Ende erwarb der Interessent die Anleihe und dann dankte er der Bankkauffrau für ihre Beratung.</div>,7,NULL,9199
1683873398,eff2e30d874070de727d841357e57f3c,Question,12,0,practice,NULL,<div style="width: 40em; text-align: left; font-size: 20px">Ein Sozialarbeiter ging mit einem Klienten in eine Klinik%2C da der Klient in letzter Zeit an Krampfanfällen litt. Der Sozialarbeiter schilderte dem Mediziner die Situation und dieser führte ein paar Untersuchungen durch. Doch der Mediziner konnte keine erkennbare Ursache für die Krampfanfälle ausmachen. Enttäuscht berichtete der Mediziner dies dem Sozialarbeiter und dem Klienten. Daraufhin beschäftigte der Mediziner den Sozialarbeiter und dann wandte sich dieser an einen Spezialisten.</div>,3,NULL,12677
1683873398,eff2e30d874070de727d841357e57f3c,Question,13,0,practice,NULL,<div style="width: 40em; text-align: left; font-size: 20px">Eines nachts wurde ein Feuerwehrmann zu einem Haus gerufen%2C um einen Brand zu löschen. An der Einfahrt wurde er von dem aufgelösten Eigentümer begrüßt. Schnell erklärte der Eigentümer dem Feuerwehrmann%2C was den Brand verursacht hatte. Der Feuerwehrmann versicherte dem Eigentümer%2C den Brand unter Kontrolle zu bekommen. Dann sprühte der Feuerwehrmann den Eigentümer und daraufhin betrat er das Haus.</div>,1,NULL,13160
1683873398,eff2e30d874070de727d841357e57f3c,Question,378,0,P,61,<div style="width: 40em; text-align: left; font-size: 20px"> Am Abend kam ein Journalist in ein italienisches Restaurant%2C wo er von der Bedienung freundlich begrüßt wurde. Umständlich erklärte der Mann%2C dass er schnell etwas essen wollte und forderte%2C sofort die Speisekarte zu sehen. Antworten Sie bei dieser Frage mit Nummer eins. Die Bedienung wies dem Journalisten einen Tisch zu und mit der Speisekarte in der Hand ging er dorthin. Am Tisch las der Journalist die Speisekarte. </div>,1,NULL,6212
1683873398,eff2e30d874070de727d841357e57f3c,Question,328,0,C,53,<div style="width: 40em; text-align: left; font-size: 20px"> Eines Abends wurde ein Architekt von dem Bürgermeister angerufen. Dieser sagte%2C dass die Stadt eine neue Turnhalle zu bauen beabsichtigte. Er beauftragte den Architekten%2C einen Plan der Turnhalle zu erstellen und diesen in einer Rede vor dem Gemeinderat näher auszuführen. In der Rede solle er auf die besonderen Merkmale seines Entwurfes eingehen. Der Architekt versicherte%2C dass er sofort mit der Konzeption der Turnhalle beginnen werde und bedankte sich für die Tipps bezüglich der Rede. Daraufhin rief der Architekt die Rede und dann goss er sich ein Glas Wein ein. </div>,6,NULL,11198
1683873398,eff2e30d874070de727d841357e57f3c,Question,133,0,Cd,20,<div style="width: 40em; text-align: left; font-size: 20px"> Ein Mopedfahrer war versehentlich gegen die Stoßstange eines Autos gefahren. Der Autofahrer verlangte nun%2C dass der Mopedfahrer für den Schaden aufkomme%2C doch dieser weigerte sich und sagte%2C dass die Stange ja überhaupt nicht beschädigt sei. Daraufhin rief der Autofahrer einen Polizisten zur Hilfe. Der Polizist eilte sofort herbei und begutachtete das Fahrzeug. Dann sagte der Polizist zum Mopedfahrer%2C dass dieser für die Reparaturkosten des Autofahrers aufkommen müsse. Daraufhin sortierte der Mopedfahrer den Autofahrer und außerdem entschuldigte er sich für den Unfall. </div>,1,NULL,14971
1683873398,eff2e30d874070de727d841357e57f3c,Question,357,0,B,58,<div style="width: 40em; text-align: left; font-size: 20px"> Ein Beschuldigter und seine Anwältin betraten den Gerichtssaal%2C um bei der bevorstehenden Anhörung zu beweisen%2C dass der Beschuldigte die Tat nicht begangen hatte. Der Kläger saß schon an seinem Platz und warf den beiden böse Blicke zu. Die Anwältin ging noch ein paar ihrer Unterlagen durch%2C dann begann die Verhandlung. Der Kläger wurde nach vorne gebeten und von der Anwältin zur Tat befragt. Der Beschuldigte blickte nervös drein%2C als der Kläger ihn vor aller Augen der Tat bezichtigte. Daraufhin prüfte die Anwältin den Beschuldigten und dann wandte sie sich an den Richter. </div>,6,NULL,10743
1683873398,eff2e30d874070de727d841357e57f3c,Question,119,0,Ad,18,<div style="width: 40em; text-align: left; font-size: 20px"> Eine junge Dame wollte einen Edelstein von einem Juwelier beurteilen lassen. Stolz erzählte sie ihm%2C dass sie ihn von ihrer Großtante geerbt habe. Nun wollte die Dame von dem Juwelier wissen%2C um welche Art Edelstein es sich handelte. Der Juwelier betrachtete den Edelstein sehr lange und sagte dann zu der jungen Dame%2C dass er sehr selten und wunderschön sei. Entzückt entlohnte die Dame den Edelstein und danach bedankte sie sich für sein Fachwissen. </div>,6,NULL,7520
1683873398,eff2e30d874070de727d841357e57f3c,Question,443,0,P,72,<div style="width: 40em; text-align: left; font-size: 20px"> Da das Baby Schnupfen hatte%2C wollte die Mutter mit dem Baby zum Arzt gehen. Davor wollte sie sich allerdings noch ihre Haare waschen%2C da diese sehr fettig waren. Nach dem Haarewaschen merkte die Mutter%2C dass sie kein Handtuch parat hatte und ging ein neues Handtuch holen. Antworten Sie bei dieser Frage mit Nummer sieben. Da das Handtuch weiß war%2C erinnerte sich die Mutter daran%2C dass sie dem Baby noch eine frische Windel anziehen musste%2C bevor sie sich auf den Weg zum Arzt machte. Daraufhin speicherte die Mutter das Baby. </div>,7,NULL,5992
1683873398,eff2e30d874070de727d841357e57f3c,Question,278,0,A,45,<div style="width: 40em; text-align: left; font-size: 20px"> Als ein Referendar den Weihnachtsmarkt seines Gymnasiums betrat%2C wurde er direkt von ein paar Schülern begrüßt. Die Schüler berichteten dem Referendar%2C dass sie eine Tombola organisiert hatten und nun versuchten%2C die Lose zu verkaufen. Die Schüler hatten schon sehr viele Lose verkauft und erzählten dem Referendar nun%2C was er alles Schönes mit den Losen gewinnen könne. Amüsiert kaufte der Referendar die Lose und tatsächlich gewann er einen Preis. </div>,7,NULL,8263
1683873398,eff2e30d874070de727d841357e57f3c,Question,18,0,Bd,1,<div style="width: 40em; text-align: left; font-size: 20px"> Ein Tourist wollte seinen riesigen Koffer mit in das Flugzeug nehmen. Der Koffer war allerdings so schwer%2C dass die Dame am Check-in entschied%2C dem Touristen eine extra Gebühr zu berechnen. Daraufhin öffnete der Tourist seinen Koffer und warf einige Sachen hinaus. Somit wog der Koffer des einfallsreichen Touristen weniger als das Maximum von 30 Kilogramm. Dann begrüßte die Dame den Koffer und danach ging er zum Gate. </div>,1,NULL,9754
1683873398,eff2e30d874070de727d841357e57f3c,Question,112,0,C,17,<div style="width: 40em; text-align: left; font-size: 20px"> Ein Gärtner war sehr stolz auf seinen schönen neuen Rasenmäher%2C denn der Rasenmäher war so groß%2C dass man auf diesem sitzen und wie mit einem Auto herumfahren konnte. Das erzählte der Gärtner auch der kleinen Tochter seines Chefs. Begeistert fragte die Tochter des Chefs%2C ob sie auch mal fahren dürfe. Die Tochter kletterte neben den Gärtner auf den Sitz des Rasenmähers und sie drehten eine große Runde über die Wiese. Danach halbierte die Tochter den Rasenmäher und dann sagte sie begeistert%2C dass sie morgen wiederkommen würde. </div>,1,NULL,8005
1683873398,eff2e30d874070de727d841357e57f3c,Question,169,0,Cd,26,<div style="width: 40em; text-align: left; font-size: 20px"> Ein Rentner wollte auf einem Trödelmarkt sein altes Zelt verkaufen%2C mit dem er schon viele schöne Urlaube verbracht hatte. Deshalb wollte er nun einen neuen Besitzer finden%2C der genauso viel Freude daran haben würde%2C wie er selbst sie gehabt hatte. Plötzlich tauchte ein kleines Kind neben ihm auf und starrte begeistert auf das Zelt. Das Kind stellte dem Rentner viele Fragen und erzählte ihm auch von seinen eigenen Campingausflügen mit der Familie. Schließlich fragte das Kind nach dem Preis für das Zelt. Lachend aß der Rentner das Kind und dann schenkte er es dem Kind. </div>,1,NULL,8732
1683873398,eff2e30d874070de727d841357e57f3c,Question,321,0,B,52,<div style="width: 40em; text-align: left; font-size: 20px"> Eine Designerin hatte den Auftrag bekommen%2C ein Buch grafisch zu gestalten. In dem Buch ging es um Geschichten über Eisbären. Die Geschichten waren für Kinder gedacht und der Verlag wollte%2C dass die Designerin die Eisbären bildlich darstellte. Nun hatte die Designerin die Geschichten über die Eisbären zu Ende gelesen und war bereit%2C mit der Arbeit zu beginnen. Dann beobachtete die Designerin die Eisbären und bis spät in die Nacht arbeitete sie an der Geschichte. </div>,1,NULL,11840
1683873398,eff2e30d874070de727d841357e57f3c,Question,335,0,Ad,54,<div style="width: 40em; text-align: left; font-size: 20px"> Ein Gitarrist wurde von einer Agentin engagiert%2C um zusammen mit einer Sängerin auf einer Party aufzutreten. Auf dem Weg zur Probe erzählte die Agentin dem Gitarristen%2C dass sie lange nach einem guten Musiker gesucht habe und glaube%2C dass seine Art zu spielen ausgezeichnet mit der Stimme der Sängerin harmonieren würde. Dann holte der Gitarrist sein Instrument und die Agentin sagte%2C dass die Sängerin schon bereit sei und sie direkt mit der Probe beginnen könnten. Dann verabschiedete der Gitarrist die Sängerin und dann ging er schnell zur Bühne. </div>,5,NULL,8804
1683873398,eff2e30d874070de727d841357e57f3c,Question,407,0,P,66,<div style="width: 40em; text-align: left; font-size: 20px"> Während der Dreharbeiten eines Actionfilms kam es zu einigen Problemen. Der Lautsprecher%2C den der Regisseur zuvor sorgfältig platziert hatte%2C stand im Weg und kam dem Filmstar deutlich in die Quere. Antworten Sie bei dieser Frage mit Nummer sieben. So hatte der Filmstar bei einer Kampfszene den Lautsprecher auch beinahe umgestoßen und der Regisseur musste die Szene stoppen. Lautstark beklagte sich der Filmstar bei dem Regisseur über den Platz des Lautsprechers. Daraufhin komponierte der Regisseur den Filmstar. </div>,7,NULL,5747
1683873398,eff2e30d874070de727d841357e57f3c,Question,134,0,A,21,<div style="width: 40em; text-align: left; font-size: 20px"> Ein Segler und seine Freundin hatten einen Bootsausflug gemacht. Nun wollten sie das Boot wieder am Steg festbinden. Die Freundin griff nach dem Strick und wollte dem Segler helfen%2C doch dieser sagte der Freundin%2C dass er keine Hilfe benötige. Daraufhin packte er den Strick und wollte einen Knoten binden. Plötzlich glitt dem Segler der Strick aus den Händen und fiel ins Wasser. Daraufhin ermahnte die Freundin den Segler und dann sagte sie%2C er solle etwas aufmerksamer sein. </div>,6,NULL,8694
1683873398,eff2e30d874070de727d841357e57f3c,Question,90,0,Bd,13,<div style="width: 40em; text-align: left; font-size: 20px"> Ein Schneider und seine Assistentin suchten für eine neue Schaufensterpuppe%2C die der Schneider auf einer Messe ersteigert hatte%2C einen Platz in dem Laden. Zuerst stellte die Assistentin sie in den hinteren Teil des Ladens. Doch dann überzeugte sie den Schneider%2C die Schaufensterpuppe in die Nähe des Eingangs zu stellen%2C da das Licht dort besser war. Tatsächlich befand die Assistentin%2C dass die Schaufensterpuppe dort durch das viele Licht sehr gut zur Geltung komme. Daraufhin entdeckte der Schneider die Schaufensterpuppe und dann sagte er%2C dass der Platz am Eingang eine gute Idee war. </div>,7,NULL,8476
1683873398,eff2e30d874070de727d841357e57f3c,Question,184,0,C,29,<div style="width: 40em; text-align: left; font-size: 20px"> Ein Förster und eine Praktikantin gingen in den Wald%2C um Wild zu sehund anschließend bedankte sie sich für das Fernglasen. Der Förster schlug vor%2C auf einen Hochsitz zu klettern%2C da sie dort einen besseren Überblick haben würden. Nach einer Weile entdeckte die Praktikantin einen Hirsch. Der Hirsch war groß und hatte ein mächtiges Geweih. Doch er war sehr weit entfernt%2C weshalb die Praktikantin enttäuscht sagte%2C dass sie kaum etwas erkennen könne. Daraufhin holte der Förster ein Fernglas aus seiner Tasche und gab es ihr%2C damit sie den Hirsch sehen konnte. Dann sammelte die Praktikantin den Förster. </div>,1,NULL,7960
1683873398,eff2e30d874070de727d841357e57f3c,Question,277,0,Cd,44,<div style="width: 40em; text-align: left; font-size: 20px"> Der Geschäftsführer und der Coach saßen nebeneinander und schauten einem bedeutenden Fußballspiel zu. Leider war die Mannschaft%2C die der Coach trainierte%2C deutlich unterlegen. Der Torwart hatte bisher fast keinen Ball gehalten. Der Geschäftsführer saß bekümmert auf der Bank und selbst die gute Leistung der anderen Spieler konnte die Ungeschicktheit des Torwarts nicht wieder gut machen. Auch der Coach wirkte verzweifelt%2C als der Torwart aus Versehen den Ball einem gegnerischen Spieler zuspielte%2C worauf dieser ein Tor schoss. Am Ende verlor die Mannschaft das Spiel. Entrüstet sagte der Geschäftsführer dem traurigen Coach%2C dass er mit dem Torwart reden wolle. Letztendlich reparierte der Geschäftsführer den Coach und dann fuhr er immer noch wütend nach Hause. </div>,1,NULL,10120
1683873398,eff2e30d874070de727d841357e57f3c,Question,141,0,B,22,<div style="width: 40em; text-align: left; font-size: 20px"> Als Piraten von riesigen Goldschätzen auf einer kleinen Insel mitten im Meer gehört hatten%2C machten sie sich sofort auf den Weg%2C um sie zu suchen. Zu ihrer Überraschung entdeckten sie Einheimische auf der Insel%2C die die Goldschätze bewachten. Die Piraten versteckten sich vor den Einheimischen%2C um in Ruhe ihren Überfall vorbereiten zu können. Die Piraten warteten ab%2C bis die Einheimischen schliefen%2C um unbemerkt an die Goldschätze zu kommen. Dann begleiteten die Piraten die Einheimischen und danach segelten sie Richtung Heimat. </div>,1,NULL,10309
1683873398,eff2e30d874070de727d841357e57f3c,Question,299,0,Ad,48,<div style="width: 40em; text-align: left; font-size: 20px"> Ein Dirigent hatte ein neues Stück geschrieben und wollte es heute Abend zum ersten Mal dem Publikum zeigen. Lange hatte er mit dem Orchester geprobt und war gespannt auf die Reaktion des Publikums. Machte das Orchester heute Abend keinen Fehler%2C könnte das Stück die Karriere des Dirigenten voranbringen. Als der Abend gekommen war%2C betrat der Dirigent zusammen mit dem Orchester die Bühne%2C um dem Publikum das Stück zu präsentieren. An diesem Abend spielte das Orchester das Publikum und das Publikum applaudierte. </div>,1,NULL,6595
1683873398,eff2e30d874070de727d841357e57f3c,Question,421,0,P,68,<div style="width: 40em; text-align: left; font-size: 20px"> An einem verschneiten Wintertag wollten Kinder einen Schneemann bauen. Als sie fertig waren%2C bemerkten sie%2C dass sie die Karotte vergessen hatten. Daraufhin liefen die Kinder wieder nach Hause%2C um die Mutter nach einer Karotte zu fragen. Antworten Sie bei dieser Frage mit Nummer eins. Die Mutter sagte den Kindern%2C dass sie schnell in die Küche gehen und nach einer Karotte sehen würde. Fröhlich fotografierte die Mutter die Kinder. </div>,1,NULL,6124
1683873398,eff2e30d874070de727d841357e57f3c,Question,206,0,A,33,<div style="width: 40em; text-align: left; font-size: 20px"> In einem Museum konnte eine Besucherin einen bestimmten Raum nicht finden. Verzweifelt versuchte sie%2C sich an der Wegbeschreibung auf ihrer Eintrittskarte zu orientieren%2C aber ohne Erfolg. Dann entdeckte die Besucherin eine Aufsichtsperson am anderen Ende des Raumes und fragte sie nach Hilfe. Die Aufsichtsperson erzählte%2C dass einige Leute Probleme mit der Wegbeschreibung auf der Eintrittskarte hätten. Die Aufsichtsperson nahm die Eintrittskarte der Besucherin und versprach%2C ihr den Weg zu zeigen. Daraufhin begleitete die Aufsichtsperson die Besucherin und währenddessen erklärte sie ihr den Weg. </div>,6,NULL,7856
1683873398,eff2e30d874070de727d841357e57f3c,Question,270,0,Bd,43,<div style="width: 40em; text-align: left; font-size: 20px"> Eine Oma und ein Kleinkind standen vor einem Hasenstall und streichelten das Kaninchen. Die Oma gab dem Kleinkind Löwenzahn%2C damit dieses das Kaninchen füttern konnte und dann ging sie noch mehr Löwenzahn holen. Doch plötzlich biss das Kaninchen das Kleinkind und dieses fing fürchterlich an zu weinen. Daraufhin entdeckte die Oma das Kleinkind und nebenbei tröstete sie das Kleinkind. </div>,6,NULL,9253
1683873398,eff2e30d874070de727d841357e57f3c,Question,40,0,C,5,<div style="width: 40em; text-align: left; font-size: 20px"> Ein Opa wollte einen Apfelkuchen bei einem Konditor kaufen. Der Konditor versicherte dem Opa%2C dass der Apfelkuchen heute besonders gelungen sei. Der Opa schaute auf den Apfelkuchen in der Vitrine und sah glücklich den Konditor an. Daraufhin spülte der Konditor den Apfelkuchen und dann wandte er sich an den nächsten Kunden. </div>,1,NULL,6452
1683873398,eff2e30d874070de727d841357e57f3c,Question,25,0,Cd,2,<div style="width: 40em; text-align: left; font-size: 20px"> Ein engagierter Lehrer sah eine alte Weltkarte in der Vitrine eines Antiquitätengeschäfts. Ein solch authentisches Artefakt schien dem Lehrer sehr geeignet für sein Klassenzimmer zu sein und er sprach die Verkäuferin an. Aufgeregt fragte der Lehrer die sympathische Verkäuferin%2C wie viel die Weltkarte kosten sollte. Obwohl er für eine zusätzliche Weltkarte selbst bezahlen musste%2C sagte der Lehrer der Verkäuferin%2C dass er dies gerne tun würde. Die Verkäuferin sagte daraufhin%2C wie beschämend es sei%2C dass die Schule nicht einmal für eine Weltkarte bezahlen würde. Dann füllte der Lehrer die Verkäuferin und danach verließ er das Geschäft. </div>,1,NULL,8796
1683873398,eff2e30d874070de727d841357e57f3c,Question,69,0,B,10,<div style="width: 40em; text-align: left; font-size: 20px"> Da der Wasserhahn einer älteren Hausfrau nicht mehr aufhörte zu tropfen%2C rief die Hausfrau schließlich einen Handwerker. Zuerst betrachtete der Handwerker den Wasserhahn ausführlich und versuchte dann%2C ihn zu reparieren. Geduldig wartete die Hausfrau daneben. Nach einer Weile sagte der Handwerker%2C dass der Wasserhahn schon zu kaputt sei und er einen neuen installieren müsse. Daraufhin verständigte die Hausfrau den Handwerker und noch lange ärgerte sie sich über die Mängel moderner Geräte. </div>,6,NULL,8304
1683873398,eff2e30d874070de727d841357e57f3c,Question,155,0,Ad,24,<div style="width: 40em; text-align: left; font-size: 20px"> Schon seit einiger Zeit bereitete sich ein Sportler auf einen großen Wettkampf im Ringen vor. Der Vater des Sportlers half ihm täglich beim Training%2C denn gemeinsam wollten sie den Juror mit einer guten Technik überzeugen. Der Vater kannte den Juror schon seit langer Zeit und wusste%2C dass der Juror sehr auf die richtige Technik achtete. Am Tag des Wettkampfes war der Vater sehr aufgeregt%2C doch der Sportler beeindruckte alle mit seiner hervorragenden Technik und gewann den Wettbewerb. Danach beglückwünschte der Juror den Vater und außerdem lobte er dessen Sohn in höchsten Tönen. </div>,6,NULL,10632
1683873398,eff2e30d874070de727d841357e57f3c,Question,393,0,P,64,<div style="width: 40em; text-align: left; font-size: 20px"> In einem schicken Restaurant in New York rief ein Gast nach der Kellnerin%2C als er bezahlen wollte. Der Gast gab der Kellnerin seine Kreditkarte%2C doch kurze Zeit später wurde ihm mitgeteilt%2C dass die Kreditkarte nicht funktioniere. Antworten Sie bei dieser Frage mit Nummer eins. Verwundert antwortete der Gast der verärgerten Kellnerin%2C dass seine Kreditkarte bis jetzt immer funktioniert habe. Daraufhin beruhigte der Gast die Kellnerin. </div>,1,NULL,5358
1683873398,eff2e30d874070de727d841357e57f3c,Question,350,0,A,57,<div style="width: 40em; text-align: left; font-size: 20px"> Ein Verbrecher war auf dem Weg zu einem Haus%2C wo ein Ermittler wohnte. Dieser untersuchte einen Fall%2C in den der Verbrecher verstrickt war. Deswegen wollte dieser den Ermittler aus dem Weg räumen. Am Haus angekommen verschaffte sich der Verbrecher Zutritt. Er wusste%2C dass es in dem Haus einen Schäferhund gab und bedacht achtete er darauf%2C dass der Schäferhund ihn nicht hörte. Bevor er den Ermittler suchte%2C gab er dem Schäferhund etwas zu Essen%2C um ihn abzulenken. Dann streichelte der Verbrecher den Schäferhund und danach machte er sich auf die Suche nach dem Ermittler. </div>,1,NULL,10880
1683873398,eff2e30d874070de727d841357e57f3c,Question,198,0,Bd,31,<div style="width: 40em; text-align: left; font-size: 20px"> Aufgeregt standen die Gäste in der Kirche und lauschten der rührenden Predigt des Pfarrers. Die Braut konnte den Moment kaum erwarten%2C in dem sie dem Bräutigam ihr Jawort geben und den Ring erhalten würde. Sie wusste%2C dass der Ring ein sehr besonderes Erbstück aus der Familie des Bräutigams war%2C das schon lange von Generation zu Generation weitergegeben worden war%2C und fühlte sich sehr geehrt%2C dieses zu erhalten. Als der Pfarrer die Predigt beendete und dem Brautpaar die Frage stellte%2C gaben sich der Bräutigam und die Braut das Jawort%2C während der Trauzeuge den schönen Ring hervorholte. Glücklich verließ die Braut den Ring und dann übergab der Trauzeuge den Ring. </div>,1,NULL,9417
1683873398,eff2e30d874070de727d841357e57f3c,Question,148,0,C,23,<div style="width: 40em; text-align: left; font-size: 20px"> Ein Junge verspürte Lust%2C einen Apfel zu essen. Erst gestern hatte er bei der Ernte geholfen und anschließend den vollen Korb nach Hause getragen. Bei dem Gedanken%2C wie schwer der Korb gewesen war und daran%2C wie frisch und saftig der Apfel sein musste%2C lief dem Jungen glatt das Wasser im Mund zusammen. Der Junge wusste%2C dass die Mutter den Korb mit seinem ersehnten Apfel im Keller versteckte. Sofort schlug der Junge den Korb und dann entschied er sich für einen großen roten Apfel. </div>,1,NULL,7302
1683873398,eff2e30d874070de727d841357e57f3c,Question,313,0,Cd,50,<div style="width: 40em; text-align: left; font-size: 20px"> Eine Protestantin wollte nach Israel fliegen%2C um sich Jerusalem anzuschauen. Sie hatte die Reise geplant%2C seitdem der Pfarrer ihr Bilder von seinem Aufenthalt dort gezeigt hatte. Nun war die Reise fertig organisiert und der Abflug rückte immer näher. Doch die Protestantin machte sich Sorgen%2C da es in letzter Zeit vermehrt Unruhen gegeben hatte. So ging sie zu dem Pfarrer%2C um ihn um Rat zu fragen. Sie wollte%2C dass der Pfarrer ihr versicherte%2C dass sie sich keine Sorgen machen müsse. Dadurch würde sich die Protestantin bezüglich der Reise sicherer fühlen. Daraufhin las der Pfarrer die Reise und dann wünschte er der Protestantin einen guten Flug. </div>,1,NULL,6855
1683873398,eff2e30d874070de727d841357e57f3c,Question,249,0,B,40,<div style="width: 40em; text-align: left; font-size: 20px"> Ein Minister und sein Berater waren erzürnt über den Präsidenten aus dem Nachbarland%2C da dieser sich nicht an ein Handelsabkommen hielt. Daraufhin riet der Berater dem Minister%2C mit Sanktionen gegen den Präsidenten vorzugehen. Der Berater organisierte ein Treffen%2C bei dem der Minister dem Präsidenten seine Forderungen überbringen konnte. Dann investierte der Minister mit dem Präsidenten und dabei besprachen sie genauere Details. </div>,1,NULL,5851
1683873398,eff2e30d874070de727d841357e57f3c,Question,47,0,Ad,6,<div style="width: 40em; text-align: left; font-size: 20px"> Eine Lieferbotin brachte einem nervigen Kunden eine Frühlingsrolle. Der Kunde forderte jedoch von der Lieferbotin eine neue Frühlingsrolle%2C da diese kalt war. Nach einer Stunde kehrte die Lieferbotin einfach mit derselben kalten Frühlingsrolle zum Kunden zurück. Nichtsahnend nahm der Kunde die Lieferbotin und sogleich schloss er hinter sich die Tür. </div>,1,NULL,8892
1683873398,eff2e30d874070de727d841357e57f3c,Question,422,0,P,69,<div style="width: 40em; text-align: left; font-size: 20px"> Ein Künstler besuchte einen Kollegen in seinem Atelier. Dort sah der Künstler einen sehr alten und schmutzigen Pinsel auf einem Tisch liegen. Der Künstler fragte seinen Kollegen%2C warum dieser den Pinsel nicht schon längst weggeworfen habe. Antworten Sie bei dieser Frage mit Nummer sieben. Der Kollege erklärte%2C dass er als Kind mit diesem Pinsel malen gelernt habe und ihn der Erinnerung wegen nicht wegwerfen könne. Daraufhin aß der Künstler den Kollegen. </div>,7,NULL,4351
1683873398,eff2e30d874070de727d841357e57f3c,Question,170,0,A,27,<div style="width: 40em; text-align: left; font-size: 20px"> Als ein Lehrer seine Unterlagen holen wollte%2C bemerkte er%2C dass er seine Tasche nicht bei sich hatte. Erschrocken überlegte er%2C wo er die Tasche hatte stehen lassen. Ihm fiel ein%2C dass er sich eine Limonade hatte kaufen wollen%2C aber nicht genügend Kleingeld gehabt hatte. Deswegen war der Lehrer nochmal zurück ins Lehrerzimmer gegangen%2C um mehr Geld zu holen. Dort war er von einem Kollegen in ein wichtiges Gespräch verwickelt worden%2C sodass er die Limonade total vergessen hatte. In aller Aufregung über die Limonade hatte er bestimmt auch die Tasche in der Kantine stehen lassen. Zurück in der Kantine kaufte der Lehrer die Limonade und dann suchte er seine Tasche. </div>,1,NULL,12837
1683873398,eff2e30d874070de727d841357e57f3c,Question,342,0,Bd,55,<div style="width: 40em; text-align: left; font-size: 20px"> In einem Museum war ein Kurator dabei%2C eine neue Ausstellung zu gestalten. Da es um plastische Kunst ging%2C hatte sich der Kurator von einer befreundeten Galeristin eine Skulptur geliehen. Gerade war die Galeristin eingetroffen und sie überlegten nun gemeinsam%2C wo die Skulptur am Besten zur Geltung kommen würde. Lange suchten sie nach einem geeigneten Platz und fanden schließlich einen. Mühevoll installierte der Kurator die Skulptur%2C während die Galeristin Anleitungen gab. Danach buchte der Kurator die Skulptur und dabei dankte er ihr für ihre Hilfe. </div>,1,NULL,8053
1683873398,eff2e30d874070de727d841357e57f3c,Question,414,0,P,67,<div style="width: 40em; text-align: left; font-size: 20px"> Eine Musikerin hatte eine neue Platte aufgenommen und wollte sie dem Manager vorspielen. Im Büro des Managers erzählte die Musikerin%2C dass sie Weihnachtslieder modern interpretiert habe und die Platte bestimmt ein riesiger Erfolg werden würde. Antworten Sie bei dieser Frage mit Nummer eins. Um gemeinsam mit der Musikerin die Lieder anzuhören%2C legte der Manager die Platte auf. Am Ende dankte der Manager die Musikerin. </div>,1,NULL,4882
1683873398,eff2e30d874070de727d841357e57f3c,Question,76,0,C,11,<div style="width: 40em; text-align: left; font-size: 20px"> In einer fremden Stadt buchte ein Urlauber eine Stadtführung. Der Guide freute sich über das Interesse des Urlaubers und schenkte ihm noch einen Flyer. Der Guide erklärte dem verwunderten Urlauber%2C dass der Flyer zusätzliche Informationen enthalte%2C auf die er selbst während der Führung nicht eingehen werde. Der Urlauber freute sich über den Flyer und dankte dem Guide. Nach der Führung kochte der Urlauber den Flyer und dann machte er sich auf den Weg zu seinem Hotel. </div>,1,NULL,5801
1683873398,eff2e30d874070de727d841357e57f3c,Question,241,0,Cd,38,<div style="width: 40em; text-align: left; font-size: 20px"> Ein Eskimo wollte auf die Jagd gehen%2C um eine Robbe zu jagen. Er nahm seine Freundin als Begleitung mit. Auf dem Weg sagte der Eskimo zu der Freundin%2C dass sie sich ganz still verhalten müsse und sich nicht mehr bewegen dürfe%2C sobald sie die Robbe erblickten. Nach einer Weile entdeckte der Eskimo die Robbe in geeigneter Entfernung und zeigte sie der Freundin. Dann verpackte der Eskimo die Robbe und danach lud er sein Gewehr neu. </div>,1,NULL,7743
1683873398,eff2e30d874070de727d841357e57f3c,Question,105,0,B,16,<div style="width: 40em; text-align: left; font-size: 20px"> Eine Reporterin wollte einen Bericht über eine Farm schreiben. Dafür hatte sie sich ein paar Fragen überlegt%2C die sie dem Bauern stellen wollte. Am Hof angekommen begrüßte ein Mitarbeiter die Reporterin freundlich und brachte sie zum Bauern. Auf dem Weg erzählte der Mitarbeiter%2C dass er schon seit zwanzig Jahren auf der Farm arbeite. Beim Farmhaus angekommen%2C stellte der Mitarbeiter die Reporterin dem Bauern vor und wünschte ihnen ein erfolgreiches Interview. Daraufhin suchte die Reporterin den Mitarbeiter und anschließend machte sie ein paar Fotos vom Bauernhof. </div>,7,NULL,8120
1683873398,eff2e30d874070de727d841357e57f3c,Question,83,0,Ad,12,<div style="width: 40em; text-align: left; font-size: 20px"> Ein Paparazzi stellte seine große Kamera auf und wartete auf eine berühmte Schauspielerin. Es war eine sehr gute Kamera und er wollte unbedingt tolle Bilder schießen. Als die Schauspielerin den Paparazzi entdeckte%2C wurde sie sehr wütend%2C da sie nicht fotografiert werden wollte. Deshalb warf die Schauspielerin die Kamera um. Daraufhin bedrohte der Paparazzi die Kamera und ferner sagte er%2C dass er sich so nicht behandeln lasse. </div>,1,NULL,7592
1683873398,eff2e30d874070de727d841357e57f3c,Question,436,0,P,71,<div style="width: 40em; text-align: left; font-size: 20px"> Eines Winterabends betrat eine Ehefrau mit einer Platzwunde am Kopf und einer verbogenen Brille ihre Wohnung. Erschrocken fragte der Ehemann sie%2C was denn passiert sei. Antworten Sie bei dieser Frage mit Nummer sieben. Die Ehefrau legte die Brille beiseite und erzählte dem Ehemann%2C dass sie auf der vereisten Straße ausgerutscht sei. Dabei war auch die Brille der Ehefrau kaputtgegangen. Daraufhin tätschelte der Ehemann die Ehefrau. </div>,7,NULL,3881
1683873398,eff2e30d874070de727d841357e57f3c,Question,314,0,A,51,<div style="width: 40em; text-align: left; font-size: 20px"> Eine Erzieherin suchte einen Therapeuten auf. Dieser war ihr von einer Freundin empfohlen worden%2C nachdem sie über Symptome geklagt hatte. Die Symptome waren denen einer Depression ziemlich ähnlich und die Erzieherin hatte beschlossen%2C dass sie professionelle Hilfe von dem Therapeuten brauche. So war die Erzieherin sehr erleichtert gewesen%2C als sie endlich einen Termin bei dem Therapeuten bekommen hatte%2C da sich die Symptome in letzter Zeit noch verschlimmert hatten. In der Praxis erfragte der Therapeut die Symptome und daraufhin verschrieb er ein Medikament. </div>,7,NULL,7631
1683873398,eff2e30d874070de727d841357e57f3c,Question,306,0,Bd,49,<div style="width: 40em; text-align: left; font-size: 20px"> Ein Doktorand hatte nach Jahren endlich seine Arbeit beendet und musste sie nun seiner Betreuerin und anderen Prüfern vorstellen. Obwohl der Doktorand eng mit der Betreuerin zusammengearbeitet hatte und wusste%2C dass die Arbeit sehr gut war%2C war er trotzdem sehr nervös. Vor der Prüfung ging der Doktorand noch einmal die wichtigsten Stichpunkte bezüglich der Arbeit durch%2C dann folgte er den anderen Prüfern ins Büro der Betreuerin. Dort wechselte der Doktorand die Arbeit und dann hielt er seinen Vortrag. </div>,1,NULL,11150
1683873398,eff2e30d874070de727d841357e57f3c,Question,292,0,C,47,<div style="width: 40em; text-align: left; font-size: 20px"> In einem Kriegsgebiet wollte ein Soldat eine Zivilistin unbemerkt an den gegnerischen Truppen vorbei schmuggeln%2C da es für sie sehr gefährlich war%2C allein unterwegs zu sein. Da sie sich in einem Kriegsgebiet befanden%2C hielt der Soldat die Waffe bereit. So schlichen die Zivilistin und der Soldat mit seiner Waffe still die Häuser entlang. Die Zivilistin war sehr erleichtert über die Hilfe und fühlte sich durch die Waffe auch sicher%2C doch plötzlich tauchte vor ihnen ein Panzer des gegnerischen Lagers auf. Schnell durchkämmte der Soldat die Waffe und sofort ging er in Deckung. </div>,1,NULL,7160
1683873398,eff2e30d874070de727d841357e57f3c,Question,61,0,Cd,8,<div style="width: 40em; text-align: left; font-size: 20px"> Ein gemeiner Kutscher schlug seinen Gaul immer sehr heftig mit einer Peitsche. Eines Tages wurde der Kutscher dabei von einem Tierliebhaber beobachtet%2C der Mitleid mit dem Gaul hatte. Sofort lief der Tierliebhaber zum Kutscher und seinem Gaul und nahm ihm die Peitsche weg. Dann füllte der Tierliebhaber den Gaul und darüber hinaus forderte er ihn auf%2C den Gaul in Ruhe zu lassen. </div>,1,NULL,8410
1683873398,eff2e30d874070de727d841357e57f3c,Question,177,0,B,28,<div style="width: 40em; text-align: left; font-size: 20px"> Eine junge Bergsteigerin hatte eine neue Spitzhacke geschenkt bekommen und war nun erpicht darauf%2C diese sogleich an einer sehr steilen Bergwand auszuprobieren. Ihre Mutter hatte ihr die Spitzhacke erst am Tag zuvor gekauft%2C nachdem der Verkäufer der Mutter versichert hatte%2C dass es ein sehr gutes Modell sei. Am Morgen hatte die Mutter ihr viel Erfolg gewünscht und danach war die Bergsteigerin voller Tatendrang aufgebrochen%2C den Berg zu erklimmen. Doch leider brach die Spitzhacke durch%2C nachdem die Bergsteigerin schon eine Weile geklettert war und sie musste von der Bergwacht gerettet werden. Im Krankenhaus verließ die Mutter die Bergsteigerin und hinterher betrachtete sie die kaputte Spitzhacke. </div>,5,NULL,12043
1683873398,eff2e30d874070de727d841357e57f3c,Question,191,0,Ad,30,<div style="width: 40em; text-align: left; font-size: 20px"> Ein Angeklagter wurde zum Gerichtssaal gebracht%2C wo der Richter und der Staatsanwalt schon auf ihn warteten. Der Mann wurde eines Raubüberfalls beschuldigt und heute war der erste Anhörungstag. Nachdem der Richter die Sitzung eröffnet hatte%2C trug der Staatsanwalt alle Punkte vor%2C die dem Angeklagten vorgeworfen wurden. Danach dankte der Richter dem Staatsanwalt und begann mit der Anhörung des Angeklagten. Am Ende konsultierte der Richter den Angeklagten und danach ließ er den ersten Zeugen herein. </div>,6,NULL,9110
1683873398,eff2e30d874070de727d841357e57f3c,Question,385,0,P,62,<div style="width: 40em; text-align: left; font-size: 20px"> Ein armer Bauer und seine Frau standen vor ihrer Hütte. Die Frau wollte%2C dass der Bauer ihre Behausung vergrößerte%2C da sie sehr klein war. Antworten Sie bei dieser Frage mit Nummer sieben. Doch der Bauer weigerte sich%2C sie zu vergrößern. Seiner Meinung nach war die Größe der Hütte mehr als ausreichend. Beim Anblick der Hütte fing die Frau an zu weinen. Daraufhin inspizierte der Bauer die Frau. </div>,7,NULL,2966
1683873398,eff2e30d874070de727d841357e57f3c,Question,62,0,A,9,<div style="width: 40em; text-align: left; font-size: 20px"> Mitten im Meer sah ein Kapitän ein Pärchen auf einem kleinen Segelboot. Schon aus großer Entfernung konnte der Kapitän sehen%2C dass das Segelboot kaputt und das Pärchen in großer Not war. Schnell änderte der Kapitän seinen Kurs und steuerte zum Segelboot%2C um dem Pärchen zu helfen. Dann bestieg der Kapitän das Segelboot und sofort half er dem Pärchen. </div>,6,NULL,5829
1683873398,eff2e30d874070de727d841357e57f3c,Question,126,0,Bd,19,<div style="width: 40em; text-align: left; font-size: 20px"> Ein Mechaniker machte einige Zaubertricks mit einem Schraubenzieher für seine kleine Nichte. Zu ihrer Überraschung war das Werkzeug plötzlich aus der Hand des Mechanikers verschwunden%2C doch kurz darauf zog er den Schraubenzieher hinter dem Ohr der Nichte hervor und lachte über ihren erstaunten Gesichtsausdruck. Geheimnisvoll erzählte der Mechaniker der Nichte%2C dass er gerade Magie benutzt habe%2C um den Schraubenzieher verschwinden zu lassen. Verblüfft sah die Nichte den Mechaniker und dann sagte sie%2C dass sie noch mehr Zaubertricks sehen wolle. </div>,1,NULL,7703
1683873398,eff2e30d874070de727d841357e57f3c,Question,364,0,C,59,<div style="width: 40em; text-align: left; font-size: 20px"> Ein Junge ging mit seinem Kumpel zum See%2C da er schwimmen wollte. Der Kumpel hatte seine Angel dabei und erzählte dem Jungen%2C dass er heute einen Flussbarsch angeln wollte%2C von denen es viele im See gab. Er hatte einen besonderen Köder dabei%2C mit dem er den Flussbarsch anlocken wollte. Der Junge wünschte dem Kumpel viel Glück mit dem Flussbarsch und machte einen Salto ins Wasser. Daraufhin trocknete der Kumpel den Flussbarsch und danach ging er selbst ins Wasser. </div>,1,NULL,6887
1683873398,eff2e30d874070de727d841357e57f3c,Question,205,0,Cd,32,<div style="width: 40em; text-align: left; font-size: 20px"> Während ein Ritter seinen Umhang anprobierte%2C besprach er das bevorstehende Turnier mit dem Burgfräulein. Das Burgfräulein fand den Umhang viel zu groß und schlug vor%2C ihn etwas zu kürzen. Aber der Ritter wollte nicht%2C dass das Burgfräulein irgendetwas veränderte. Er hatte den Umhang schon seit Jahren und dieser hatte dem Ritter bisher immer Glück gebracht. Daraufhin entleerte das Burgfräulein den Ritter und dann wünschte es dem Ritter viel Erfolg. </div>,1,NULL,6770
1683873398,eff2e30d874070de727d841357e57f3c,Question,285,0,B,46,<div style="width: 40em; text-align: left; font-size: 20px"> Eine Mutter ging mit ihren eineiigen Zwillingen zum Doktor%2C da diese geimpft werden sollten. Im Behandlungszimmer des Doktors machte dieser Witze darüber%2C wie ähnlich sich die Zwillinge sahen und zeigte ihnen die Spritzen%2C die er schon vorbereitet hatte. Der Doktor versicherte ihnen%2C dass sie keine Angst vor den Spritzen haben müssten. Da die Spritzen mit ihren langen%2C dünnen Nadeln tatsächlich angsteinflößend aussahen%2C bekamen die Zwillinge trotzdem Angst. Dann erhielt der Doktor die Spritzen und anschließend begann er mit der Impfung. </div>,7,NULL,5934
1683873398,eff2e30d874070de727d841357e57f3c,Question,263,0,Ad,42,<div style="width: 40em; text-align: left; font-size: 20px"> Ein Autor ging mit dem Hund spazieren%2C um an der frischen Luft neue Ideen für sein derzeitiges Buch zu bekommen. Der Autor hatte einen Ball dabei%2C da der Hund sehr verspielt war. Im Park angekommen%2C warf der Autor den Ball einige Meter weit. Sofort rannte der Hund dem Ball nach und brachte ihn brav zurück. Daraufhin nahm der Autor den Hund und wieder warf er ihn einige Meter weit. </div>,1,NULL,7940
1683873398,eff2e30d874070de727d841357e57f3c,Question,400,0,P,65,<div style="width: 40em; text-align: left; font-size: 20px"> Bei einem Kontrollrundgang ging der Bauleiter zu einem Maurer%2C um dessen Arbeit zu überwachen. Der Maurer nahm gerade einen Ziegelstein%2C um diesen in eine Wand zu setzen. Antworten Sie bei dieser Frage mit Nummer eins. Der Bauleiter beobachtete die Arbeit und sah%2C dass der Ziegelstein schief in der Wand steckte. Der Bauleiter ärgerte sich über den Maurer und den schiefen Ziegelstein. Genervt tauschte der Bauleiter den Maurer. </div>,1,NULL,3687
1683873398,eff2e30d874070de727d841357e57f3c,Question,26,0,A,3,<div style="width: 40em; text-align: left; font-size: 20px"> Eine Redakteurin hatte von ihrer Firma eine Streifenkarte erhalten. Mit dieser Streifenkarte konnte die Redakteurin günstig mit dem Bus zur Arbeit fahren und musste nicht jedes Mal eine Karte bei dem Busfahrer kaufen. Leider hatte die Tochter der Redakteurin eines Tages eine Zeichnung auf die Streifenkarte gemalt. Deswegen hatte die Redakteurin etwas Angst%2C als sie bemerkte%2C dass der Busfahrer heute nicht gut gelaunt war%2C als sie ihm die Streifenkarte überreichte. Dann stempelte der Busfahrer die Streifenkarte und sofort fuhr er viel zu schnell weiter. </div>,6,NULL,9224
1683873398,eff2e30d874070de727d841357e57f3c,Question,162,0,Bd,25,<div style="width: 40em; text-align: left; font-size: 20px"> Eine Geschäftsfrau hatte bei einer Auktion eine süße%2C alte Scheune ersteigert%2C die sie zu einer Bar herrichten ließ. Ihr Mann war nämlich Kellner und wollte sich schon lange selbstständig machen. Da der Mann in Bezug auf Ästhetik nicht sehr viel verstand%2C überließ er es ihr%2C die Renovierungsarbeiten anzuleiten. Diese hatten einige Zeit beansprucht%2C doch der Geschäftsfrau war das egal%2C denn sie war mit dem Resultat äußerst zufrieden. Die Bar war wunderschön geworden und hatte ihr altes Flair nicht verloren. Begeistert zeigte die Geschäftsfrau ihrem Mann die fertige Bar. Daraufhin rief der Mann die Bar und dann lobte er sie für ihren guten Geschmack. </div>,1,NULL,6048
1683873398,eff2e30d874070de727d841357e57f3c,Question,220,0,C,35,<div style="width: 40em; text-align: left; font-size: 20px"> Ein Kind entdeckte in einem Schaufenster einen Teddybären%2C den es unbedingt haben wollte. Der Ladenbesitzer bemerkte die bewundernden Blicke des Kindes und nahm ihn vom Regal. Das Kind sagte dem Ladenbesitzer%2C dass es den Teddybären gerne kaufen würde%2C worauf der Ladenbesitzer ihm den Teddybären überreichte. Dann bastelte das Kind den Teddybären und dann lachte es vor Freude. </div>,1,NULL,6107
1683873398,eff2e30d874070de727d841357e57f3c,Question,349,0,Cd,56,<div style="width: 40em; text-align: left; font-size: 20px"> Eine Studentin war mit einer Kommilitonin in einer Kneipe. Da sie danach noch in einem Club feiern gehen wollten%2C beschlossen sie%2C sich auf der Toilette frisch zu machen. Dann fragte die Kommilitonin die Studentin%2C ob sie ihre Wimperntusche ausleihen dürfe%2C da sie ihre eigene vergessen hatte. Sofort gab die Studentin ihr die Wimperntusche. Die Kommilitonin fragte eine Bedienung nach der Toilette und machte sich mit der Wimperntusche in der Hand auf den Weg zur Toilette. Dann las die Kommilitonin die Wimperntusche und anschließend schminkte sie sich. </div>,1,NULL,7100
1683873398,eff2e30d874070de727d841357e57f3c,Question,33,0,B,4,<div style="width: 40em; text-align: left; font-size: 20px"> Während er einen Tisch baute%2C brach ein Schreiner seinen schönen Hammer in zwei Teile. Der Schreiner hatte den Hammer immer gemocht. Deswegen schien es ihm eine Schande%2C ihn einfach wegzuwerfen. Es erschien dem Schreiner eine viel bessere Idee%2C den Hammer von seinem Lehrling reparieren zu lassen. Dann bemalte der Lehrling den Hammer und sofort machte er sich an die Arbeit. </div>,1,NULL,5339
1683873398,eff2e30d874070de727d841357e57f3c,Question,227,0,Ad,36,<div style="width: 40em; text-align: left; font-size: 20px"> Eine Hundeliebhaberin hatte ihren Nachbarn engagiert%2C um auf den Welpen aufzupassen%2C da sie über das Wochenende geschäftlich unterwegs war. Da die Hundeliebhaberin wusste%2C dass der Nachbar sich gut mit Tieren auskannte und den Welpen auch sehr gerne hatte%2C hatte sie keine Bedenken. Trotzdem war sie froh%2C als sie wieder zu Hause war. Als die Hundeliebhaberin die Haustüre aufschloss%2C rannte ihr der Welpe entgegen und der Nachbar begrüßte sie freundlich. Daraufhin entlohnte die Hundeliebhaberin den Welpen und außerdem bedankte sie sich für seine Zeit. </div>,1,NULL,7579
1683873398,eff2e30d874070de727d841357e57f3c,Question,386,0,P,63,<div style="width: 40em; text-align: left; font-size: 20px"> Eine Auszubildende hatte das Essen anbrennen lassen und bemühte sich nun%2C die Pfanne zu reinigen. Die Küchenchefin drängte die Auszubildende zur Eile%2C da die Küchenchefin die Pfanne schon sehr bald wieder benötigte. Antworten Sie bei dieser Frage mit Nummer sieben. Daraufhin wurde die Pfanne fünfzehn Minuten lang von der Auszubildenden geschrubbt. Sofort knetete die Küchenchefin die Auszubildende. </div>,7,NULL,3270
1683873398,eff2e30d874070de727d841357e57f3c,Question,98,0,A,15,<div style="width: 40em; text-align: left; font-size: 20px"> Erfreut zeigte eine Sekretärin ihrem Chefarzt die neue Diktiermaschine. Damit konnte der Chefarzt seine Arztberichte nun selbst aufzeichnen und war nicht mehr auf die Hilfe seiner Sekretärin angewiesen. Bisher hatte sie nämlich seine Berichte selbst aufschreiben müssen. Deswegen freute sie sich besonders über die neue Diktiermaschine. Da der Chefarzt heute besonders viele Patienten gehabt hatte%2C schlug die Sekretärin ihm vor%2C die neue Diktiermaschine direkt auszuprobieren. Dann verabschiedete der Chefarzt die Sekretärin und dann machte er Feierabend. </div>,7,NULL,8711
1683873398,eff2e30d874070de727d841357e57f3c,Question,54,0,Bd,7,<div style="width: 40em; text-align: left; font-size: 20px"> In einem Restaurant unterhielt sich eine Vegetarierin mit einem befreundeten Metzger über eine Fleischwurst auf seinem Teller. Der Metzger sah die Vegetarierin an und erklärte%2C diese Fleischwurst zu essen%2C wäre ein reines Vergnügen. Er verglich es sogar damit%2C  eine schöne Oper zu hören. Die Vegetarierin hielt dies jedoch für einen sch lechten Vergleich und wies den Metzger darauf hin%2C dass ein Tier für diese Fleischwurst getötet worden war. Dann bestellte der Metzger die Vegetarierin und sofort begann er zu essen. </div>,1,NULL,6216
1683873398,eff2e30d874070de727d841357e57f3c,Question,256,0,C,41,<div style="width: 40em; text-align: left; font-size: 20px"> Seit Monaten hatte sich der Athlet mit der Trainerin darauf vorbereitet%2C bei dem wichtigsten Wettkampf des Jahres den Pokal zu holen. Die Trainerin trieb ihn hart an%2C da sie sicher war%2C dass er gute Chancen hatte. Und tatsächlich hatte sich die harte Arbeit gelohnt%2C denn der Athlet gewann den Pokal und überglücklich bedankte er sich bei der Trainerin. Stolz hielt der Athlet den Pokal in den Händen. Im Hotel verspeiste die Trainerin den Pokal und anschließend stellte sie ihn auf den Tisch. </div>,1,NULL,6363
1683873398,eff2e30d874070de727d841357e57f3c,Question,97,0,Cd,14,<div style="width: 40em; text-align: left; font-size: 20px"> Ein Schwimmer übte einen besonders schwierigen Sprung vom Sprungbrett%2C als er am Beckenrand ein Mädchen entdeckte. Seit einiger Zeit schon bewunderte er das Mädchen aus der Ferne%2C hatte sich aber nie getraut%2C es anzusprechen. Doch heute wollte der Schwimmer dies nachholen und ihm kam die Idee%2C dass er es mit dem anspruchsvollen Sprung vom Brett beeindrucken könnte. So wartete er einen Moment ab%2C in dem das Mädchen zum Brett blickte und sprang dann ins Wasser. Nach dem geglückten Sprung ging der Schwimmer sofort zu dem Mädchen und sprach es an. Danach salzte das Mädchen den Sprung und nach einer Weile verriet es ihm seine Handynummer. </div>,1,NULL,7063
1683873398,eff2e30d874070de727d841357e57f3c,Question,213,0,B,34,<div style="width: 40em; text-align: left; font-size: 20px"> Ein Händler war auf dem Weg in den fernen Orient%2C um dort kostbare Gewürze einzukaufen. Dort angekommen begab er sich zum Marktplatz. Der Händler konnte schon von weitem die Rufe hören%2C mit denen die Sklaven zum Kauf angepriesen wurden. Der Händler fragte jemanden nach dem Stand mit den Gewürzen. Auf dem Weg zu den Gewürzen kam auch er an den Sklaven vorbei%2C welche seine fremdländischen Gewänder interessiert musterten. Dann verabschiedete der Händler die Sklaven und anschließend ging er weiter zu den Gewürzen. </div>,7,NULL,6486
1683873398,eff2e30d874070de727d841357e57f3c,Question,371,0,Ad,60,<div style="width: 40em; text-align: left; font-size: 20px"> Eine Schwangere betrat das Untersuchungszimmer einer Gynäkologin und wurde von der Gynäkologin freundlich begrüßt. Die Gynäkologin deutete auf die Liege im Zimmer und forderte die Schwangere auf%2C sich dort hinzulegen. Die Liege war etwas hoch eingestellt%2C doch die Schwangere schaffte es%2C hochzukommen und legte sich auf die Liege. Daraufhin verstellte die Gynäkologin die Schwangere und dann wandte sie sich der Schwangeren zu. </div>,1,NULL,4132
1683873398,eff2e30d874070de727d841357e57f3c,Question,429,0,P,70,<div style="width: 40em; text-align: left; font-size: 20px"> An einem Sommertag strichen ein Maler und sein Lehrling Wände in einem Rohbau. Da es sehr warm war%2C zog der Maler seinen Mantel aus und legte ihn zur Seite. Antworten Sie bei dieser Frage mit Nummer eins. Voller Stolz erzählte der Maler%2C dass der Mantel neu sei und er ihn von seiner Frau geschenkt bekommen habe. Als der Lehrling sich umdrehte%2C stieß er aus Versehen gegen den Farbeimer und die Farbe ergoss sich über den Lehrling und den Mantel des Malers. Daraufhin bürstete der Maler den Mantel. </div>,1,NULL,3045
1683873398,eff2e30d874070de727d841357e57f3c,Question,242,0,A,39,<div style="width: 40em; text-align: left; font-size: 20px"> Nach einer Abendveranstaltung machte sich eine Tänzerin auf den Weg nach Hause. Sie beeilte sich%2C um schnell bei ihrer Tochter und der Babysitterin zu sein. Da die Babysitterin das erste Mal auf die Tochter aufgepasst hatte%2C wollte die Tänzerin schnell nach Hause%2C um nach dem Rechten zu schauen. Zuhause angekommen fand die Tänzerin eine glückliche Tochter und eine entspannte Babysitterin vor und war sehr erleichtert. Dann vergütete die Tänzerin die Babysitterin und anschließend schickte sie diese nach Hause. </div>,7,NULL,6192
1683873398,eff2e30d874070de727d841357e57f3c,Question,234,0,Bd,37,<div style="width: 40em; text-align: left; font-size: 20px"> Ein Schuhverkäufer hatte gerade einem Kunden ein Paar Schuhe verkauft%2C als er beobachtete%2C wie draußen vor seinem Laden ein Dieb dem Kunden seine Geldbörse entwendete. Auch sah der Schuhverkäufer%2C dass dieser nichts davon mitbekommen hatte und der Dieb sich geschickt aus dem Staub machte. Der Schuhverkäufer blickte dem Kunden hinterher und rannte schnell nach draußen%2C um den Dieb aufzuhalten. Dann schickte der Schuhverkäufer den Dieb und sofort erzählte er ihm von dem beobachteten Diebstahl. </div>,1,NULL,6731
# 8. Field name.
# 9. Field value.
1683873398,eff2e30d874070de727d841357e57f3c,Form,7,0,demographics,NULL,age,29
1683873398,eff2e30d874070de727d841357e57f3c,Form,7,0,demographics,NULL,lang1,Englisch
1683873398,eff2e30d874070de727d841357e57f3c,Form,7,0,demographics,NULL,lang2,
1683873398,eff2e30d874070de727d841357e57f3c,Form,7,0,demographics,NULL,lang3,
1683873398,eff2e30d874070de727d841357e57f3c,Form,7,0,demographics,NULL,sex,male
1683873398,eff2e30d874070de727d841357e57f3c,Form,7,0,demographics,NULL,lang,Yes
1683873398,eff2e30d874070de727d841357e57f3c,Form,7,0,demographics,NULL,prof1,verygood
#
# Results on Fri, 12 May 2023 06:46:39 GMT
# USER AGENT: Mozilla/5.0 (Windows NT 10.0; Win64; x64; rv:102.0) Gecko/20100101 Firefox/102.0
# Design number was non-random = 4
#
# Columns below this comment are as follows:
# 1. Results reception time.
# 2. MD5 hash of participant's IP address.
# 3. Controller name.
# 4. Order number of item.
# 5. Inner element number.
# 6. Label.
# 7. Latin Square Group.
# 8. Field name.
# 9. Field value.
1683873999,2f3782f686d1994ea4a1aad5bc820ab6,Form,2,0,Consent,NULL,prolific_id,63c08fa9f3882764b4e8e7dd
1683873999,2f3782f686d1994ea4a1aad5bc820ab6,Form,2,0,Consent,NULL,consent,yes
# 8. Question (NULL if none)..
# 9. Answer.
# 10. Whether or not answer was correct (NULL if N/A).
# 11. Time taken to answer..
1683873999,2f3782f686d1994ea4a1aad5bc820ab6,Question,11,0,practice,NULL,<div style="width: 40em; text-align: left; font-size: 20px">Ein Interessent hatte mit einer Bankkauffrau einen Termin vereinbart%2C um über seine Finanzen zu sprechen. Die Bankkauffrau erzählte dem Interessenten%2C dass er sein Geld am Besten in einer Anleihe anlegen solle. Dem Interessenten gefiel die Idee der Anleihe gut und die Bankkauffrau erklärte ihm ausführlich%2C wie die Anleihe funktioniert. Am Ende erwarb der Interessent die Anleihe und dann dankte er der Bankkauffrau für ihre Beratung.</div>,7,NULL,9303
1683873999,2f3782f686d1994ea4a1aad5bc820ab6,Question,12,0,practice,NULL,<div style="width: 40em; text-align: left; font-size: 20px">Ein Sozialarbeiter ging mit einem Klienten in eine Klinik%2C da der Klient in letzter Zeit an Krampfanfällen litt. Der Sozialarbeiter schilderte dem Mediziner die Situation und dieser führte ein paar Untersuchungen durch. Doch der Mediziner konnte keine erkennbare Ursache für die Krampfanfälle ausmachen. Enttäuscht berichtete der Mediziner dies dem Sozialarbeiter und dem Klienten. Daraufhin beschäftigte der Mediziner den Sozialarbeiter und dann wandte sich dieser an einen Spezialisten.</div>,4,NULL,9945
1683873999,2f3782f686d1994ea4a1aad5bc820ab6,Question,13,0,practice,NULL,<div style="width: 40em; text-align: left; font-size: 20px">Eines nachts wurde ein Feuerwehrmann zu einem Haus gerufen%2C um einen Brand zu löschen. An der Einfahrt wurde er von dem aufgelösten Eigentümer begrüßt. Schnell erklärte der Eigentümer dem Feuerwehrmann%2C was den Brand verursacht hatte. Der Feuerwehrmann versicherte dem Eigentümer%2C den Brand unter Kontrolle zu bekommen. Dann sprühte der Feuerwehrmann den Eigentümer und daraufhin betrat er das Haus.</div>,2,NULL,7270
1683873999,2f3782f686d1994ea4a1aad5bc820ab6,Question,378,0,P,61,<div style="width: 40em; text-align: left; font-size: 20px"> Am Abend kam ein Journalist in ein italienisches Restaurant%2C wo er von der Bedienung freundlich begrüßt wurde. Umständlich erklärte der Mann%2C dass er schnell etwas essen wollte und forderte%2C sofort die Speisekarte zu sehen. Antworten Sie bei dieser Frage mit Nummer eins. Die Bedienung wies dem Journalisten einen Tisch zu und mit der Speisekarte in der Hand ging er dorthin. Am Tisch las der Journalist die Speisekarte. </div>,1,NULL,2816
1683873999,2f3782f686d1994ea4a1aad5bc820ab6,Question,350,0,A,57,<div style="width: 40em; text-align: left; font-size: 20px"> Ein Verbrecher war auf dem Weg zu einem Haus%2C wo ein Ermittler wohnte. Dieser untersuchte einen Fall%2C in den der Verbrecher verstrickt war. Deswegen wollte dieser den Ermittler aus dem Weg räumen. Am Haus angekommen verschaffte sich der Verbrecher Zutritt. Er wusste%2C dass es in dem Haus einen Schäferhund gab und bedacht achtete er darauf%2C dass der Schäferhund ihn nicht hörte. Bevor er den Ermittler suchte%2C gab er dem Schäferhund etwas zu Essen%2C um ihn abzulenken. Dann streichelte der Verbrecher den Schäferhund und danach machte er sich auf die Suche nach dem Ermittler. </div>,7,NULL,7192
1683873999,2f3782f686d1994ea4a1aad5bc820ab6,Question,83,0,Ad,12,<div style="width: 40em; text-align: left; font-size: 20px"> Ein Paparazzi stellte seine große Kamera auf und wartete auf eine berühmte Schauspielerin. Es war eine sehr gute Kamera und er wollte unbedingt tolle Bilder schießen. Als die Schauspielerin den Paparazzi entdeckte%2C wurde sie sehr wütend%2C da sie nicht fotografiert werden wollte. Deshalb warf die Schauspielerin die Kamera um. Daraufhin bedrohte der Paparazzi die Kamera und ferner sagte er%2C dass er sich so nicht behandeln lasse. </div>,4,NULL,7032
1683873999,2f3782f686d1994ea4a1aad5bc820ab6,Question,112,0,C,17,<div style="width: 40em; text-align: left; font-size: 20px"> Ein Gärtner war sehr stolz auf seinen schönen neuen Rasenmäher%2C denn der Rasenmäher war so groß%2C dass man auf diesem sitzen und wie mit einem Auto herumfahren konnte. Das erzählte der Gärtner auch der kleinen Tochter seines Chefs. Begeistert fragte die Tochter des Chefs%2C ob sie auch mal fahren dürfe. Die Tochter kletterte neben den Gärtner auf den Sitz des Rasenmähers und sie drehten eine große Runde über die Wiese. Danach halbierte die Tochter den Rasenmäher und dann sagte sie begeistert%2C dass sie morgen wiederkommen würde. </div>,2,NULL,9697
1683873999,2f3782f686d1994ea4a1aad5bc820ab6,Question,421,0,P,68,<div style="width: 40em; text-align: left; font-size: 20px"> An einem verschneiten Wintertag wollten Kinder einen Schneemann bauen. Als sie fertig waren%2C bemerkten sie%2C dass sie die Karotte vergessen hatten. Daraufhin liefen die Kinder wieder nach Hause%2C um die Mutter nach einer Karotte zu fragen. Antworten Sie bei dieser Frage mit Nummer eins. Die Mutter sagte den Kindern%2C dass sie schnell in die Küche gehen und nach einer Karotte sehen würde. Fröhlich fotografierte die Mutter die Kinder. </div>,1,NULL,3620
1683873999,2f3782f686d1994ea4a1aad5bc820ab6,Question,18,0,Bd,1,<div style="width: 40em; text-align: left; font-size: 20px"> Ein Tourist wollte seinen riesigen Koffer mit in das Flugzeug nehmen. Der Koffer war allerdings so schwer%2C dass die Dame am Check-in entschied%2C dem Touristen eine extra Gebühr zu berechnen. Daraufhin öffnete der Tourist seinen Koffer und warf einige Sachen hinaus. Somit wog der Koffer des einfallsreichen Touristen weniger als das Maximum von 30 Kilogramm. Dann begrüßte die Dame den Koffer und danach ging er zum Gate. </div>,2,NULL,7465
1683873999,2f3782f686d1994ea4a1aad5bc820ab6,Question,249,0,B,40,<div style="width: 40em; text-align: left; font-size: 20px"> Ein Minister und sein Berater waren erzürnt über den Präsidenten aus dem Nachbarland%2C da dieser sich nicht an ein Handelsabkommen hielt. Daraufhin riet der Berater dem Minister%2C mit Sanktionen gegen den Präsidenten vorzugehen. Der Berater organisierte ein Treffen%2C bei dem der Minister dem Präsidenten seine Forderungen überbringen konnte. Dann investierte der Minister mit dem Präsidenten und dabei besprachen sie genauere Details. </div>,3,NULL,8111
1683873999,2f3782f686d1994ea4a1aad5bc820ab6,Question,205,0,Cd,32,<div style="width: 40em; text-align: left; font-size: 20px"> Während ein Ritter seinen Umhang anprobierte%2C besprach er das bevorstehende Turnier mit dem Burgfräulein. Das Burgfräulein fand den Umhang viel zu groß und schlug vor%2C ihn etwas zu kürzen. Aber der Ritter wollte nicht%2C dass das Burgfräulein irgendetwas veränderte. Er hatte den Umhang schon seit Jahren und dieser hatte dem Ritter bisher immer Glück gebracht. Daraufhin entleerte das Burgfräulein den Ritter und dann wünschte es dem Ritter viel Erfolg. </div>,4,NULL,7032
1683873999,2f3782f686d1994ea4a1aad5bc820ab6,Question,278,0,A,45,<div style="width: 40em; text-align: left; font-size: 20px"> Als ein Referendar den Weihnachtsmarkt seines Gymnasiums betrat%2C wurde er direkt von ein paar Schülern begrüßt. Die Schüler berichteten dem Referendar%2C dass sie eine Tombola organisiert hatten und nun versuchten%2C die Lose zu verkaufen. Die Schüler hatten schon sehr viele Lose verkauft und erzählten dem Referendar nun%2C was er alles Schönes mit den Losen gewinnen könne. Amüsiert kaufte der Referendar die Lose und tatsächlich gewann er einen Preis. </div>,7,NULL,6146
1683873999,2f3782f686d1994ea4a1aad5bc820ab6,Question,263,0,Ad,42,<div style="width: 40em; text-align: left; font-size: 20px"> Ein Autor ging mit dem Hund spazieren%2C um an der frischen Luft neue Ideen für sein derzeitiges Buch zu bekommen. Der Autor hatte einen Ball dabei%2C da der Hund sehr verspielt war. Im Park angekommen%2C warf der Autor den Ball einige Meter weit. Sofort rannte der Hund dem Ball nach und brachte ihn brav zurück. Daraufhin nahm der Autor den Hund und wieder warf er ihn einige Meter weit. </div>,4,NULL,6874
1683873999,2f3782f686d1994ea4a1aad5bc820ab6,Question,40,0,C,5,<div style="width: 40em; text-align: left; font-size: 20px"> Ein Opa wollte einen Apfelkuchen bei einem Konditor kaufen. Der Konditor versicherte dem Opa%2C dass der Apfelkuchen heute besonders gelungen sei. Der Opa schaute auf den Apfelkuchen in der Vitrine und sah glücklich den Konditor an. Daraufhin spülte der Konditor den Apfelkuchen und dann wandte er sich an den nächsten Kunden. </div>,4,NULL,7045
1683873999,2f3782f686d1994ea4a1aad5bc820ab6,Question,429,0,P,70,<div style="width: 40em; text-align: left; font-size: 20px"> An einem Sommertag strichen ein Maler und sein Lehrling Wände in einem Rohbau. Da es sehr warm war%2C zog der Maler seinen Mantel aus und legte ihn zur Seite. Antworten Sie bei dieser Frage mit Nummer eins. Voller Stolz erzählte der Maler%2C dass der Mantel neu sei und er ihn von seiner Frau geschenkt bekommen habe. Als der Lehrling sich umdrehte%2C stieß er aus Versehen gegen den Farbeimer und die Farbe ergoss sich über den Lehrling und den Mantel des Malers. Daraufhin bürstete der Maler den Mantel. </div>,1,NULL,3816
1683873999,2f3782f686d1994ea4a1aad5bc820ab6,Question,162,0,Bd,25,<div style="width: 40em; text-align: left; font-size: 20px"> Eine Geschäftsfrau hatte bei einer Auktion eine süße%2C alte Scheune ersteigert%2C die sie zu einer Bar herrichten ließ. Ihr Mann war nämlich Kellner und wollte sich schon lange selbstständig machen. Da der Mann in Bezug auf Ästhetik nicht sehr viel verstand%2C überließ er es ihr%2C die Renovierungsarbeiten anzuleiten. Diese hatten einige Zeit beansprucht%2C doch der Geschäftsfrau war das egal%2C denn sie war mit dem Resultat äußerst zufrieden. Die Bar war wunderschön geworden und hatte ihr altes Flair nicht verloren. Begeistert zeigte die Geschäftsfrau ihrem Mann die fertige Bar. Daraufhin rief der Mann die Bar und dann lobte er sie für ihren guten Geschmack. </div>,3,NULL,10264
1683873999,2f3782f686d1994ea4a1aad5bc820ab6,Question,141,0,B,22,<div style="width: 40em; text-align: left; font-size: 20px"> Als Piraten von riesigen Goldschätzen auf einer kleinen Insel mitten im Meer gehört hatten%2C machten sie sich sofort auf den Weg%2C um sie zu suchen. Zu ihrer Überraschung entdeckten sie Einheimische auf der Insel%2C die die Goldschätze bewachten. Die Piraten versteckten sich vor den Einheimischen%2C um in Ruhe ihren Überfall vorbereiten zu können. Die Piraten warteten ab%2C bis die Einheimischen schliefen%2C um unbemerkt an die Goldschätze zu kommen. Dann begleiteten die Piraten die Einheimischen und danach segelten sie Richtung Heimat. </div>,7,NULL,4755
1683873999,2f3782f686d1994ea4a1aad5bc820ab6,Question,241,0,Cd,38,<div style="width: 40em; text-align: left; font-size: 20px"> Ein Eskimo wollte auf die Jagd gehen%2C um eine Robbe zu jagen. Er nahm seine Freundin als Begleitung mit. Auf dem Weg sagte der Eskimo zu der Freundin%2C dass sie sich ganz still verhalten müsse und sich nicht mehr bewegen dürfe%2C sobald sie die Robbe erblickten. Nach einer Weile entdeckte der Eskimo die Robbe in geeigneter Entfernung und zeigte sie der Freundin. Dann verpackte der Eskimo die Robbe und danach lud er sein Gewehr neu. </div>,7,NULL,6391
1683873999,2f3782f686d1994ea4a1aad5bc820ab6,Question,134,0,A,21,<div style="width: 40em; text-align: left; font-size: 20px"> Ein Segler und seine Freundin hatten einen Bootsausflug gemacht. Nun wollten sie das Boot wieder am Steg festbinden. Die Freundin griff nach dem Strick und wollte dem Segler helfen%2C doch dieser sagte der Freundin%2C dass er keine Hilfe benötige. Daraufhin packte er den Strick und wollte einen Knoten binden. Plötzlich glitt dem Segler der Strick aus den Händen und fiel ins Wasser. Daraufhin ermahnte die Freundin den Segler und dann sagte sie%2C er solle etwas aufmerksamer sein. </div>,7,NULL,5723
1683873999,2f3782f686d1994ea4a1aad5bc820ab6,Question,371,0,Ad,60,<div style="width: 40em; text-align: left; font-size: 20px"> Eine Schwangere betrat das Untersuchungszimmer einer Gynäkologin und wurde von der Gynäkologin freundlich begrüßt. Die Gynäkologin deutete auf die Liege im Zimmer und forderte die Schwangere auf%2C sich dort hinzulegen. Die Liege war etwas hoch eingestellt%2C doch die Schwangere schaffte es%2C hochzukommen und legte sich auf die Liege. Daraufhin verstellte die Gynäkologin die Schwangere und dann wandte sie sich der Schwangeren zu. </div>,1,NULL,5643
1683873999,2f3782f686d1994ea4a1aad5bc820ab6,Question,76,0,C,11,<div style="width: 40em; text-align: left; font-size: 20px"> In einer fremden Stadt buchte ein Urlauber eine Stadtführung. Der Guide freute sich über das Interesse des Urlaubers und schenkte ihm noch einen Flyer. Der Guide erklärte dem verwunderten Urlauber%2C dass der Flyer zusätzliche Informationen enthalte%2C auf die er selbst während der Führung nicht eingehen werde. Der Urlauber freute sich über den Flyer und dankte dem Guide. Nach der Führung kochte der Urlauber den Flyer und dann machte er sich auf den Weg zu seinem Hotel. </div>,2,NULL,7168
1683873999,2f3782f686d1994ea4a1aad5bc820ab6,Question,400,0,P,65,<div style="width: 40em; text-align: left; font-size: 20px"> Bei einem Kontrollrundgang ging der Bauleiter zu einem Maurer%2C um dessen Arbeit zu überwachen. Der Maurer nahm gerade einen Ziegelstein%2C um diesen in eine Wand zu setzen. Antworten Sie bei dieser Frage mit Nummer eins. Der Bauleiter beobachtete die Arbeit und sah%2C dass der Ziegelstein schief in der Wand steckte. Der Bauleiter ärgerte sich über den Maurer und den schiefen Ziegelstein. Genervt tauschte der Bauleiter den Maurer. </div>,1,NULL,2634
1683873999,2f3782f686d1994ea4a1aad5bc820ab6,Question,270,0,Bd,43,<div style="width: 40em; text-align: left; font-size: 20px"> Eine Oma und ein Kleinkind standen vor einem Hasenstall und streichelten das Kaninchen. Die Oma gab dem Kleinkind Löwenzahn%2C damit dieses das Kaninchen füttern konnte und dann ging sie noch mehr Löwenzahn holen. Doch plötzlich biss das Kaninchen das Kleinkind und dieses fing fürchterlich an zu weinen. Daraufhin entdeckte die Oma das Kleinkind und nebenbei tröstete sie das Kleinkind. </div>,7,NULL,4477
1683873999,2f3782f686d1994ea4a1aad5bc820ab6,Question,33,0,B,4,<div style="width: 40em; text-align: left; font-size: 20px"> Während er einen Tisch baute%2C brach ein Schreiner seinen schönen Hammer in zwei Teile. Der Schreiner hatte den Hammer immer gemocht. Deswegen schien es ihm eine Schande%2C ihn einfach wegzuwerfen. Es erschien dem Schreiner eine viel bessere Idee%2C den Hammer von seinem Lehrling reparieren zu lassen. Dann bemalte der Lehrling den Hammer und sofort machte er sich an die Arbeit. </div>,5,NULL,7653
1683873999,2f3782f686d1994ea4a1aad5bc820ab6,Question,61,0,Cd,8,<div style="width: 40em; text-align: left; font-size: 20px"> Ein gemeiner Kutscher schlug seinen Gaul immer sehr heftig mit einer Peitsche. Eines Tages wurde der Kutscher dabei von einem Tierliebhaber beobachtet%2C der Mitleid mit dem Gaul hatte. Sofort lief der Tierliebhaber zum Kutscher und seinem Gaul und nahm ihm die Peitsche weg. Dann füllte der Tierliebhaber den Gaul und darüber hinaus forderte er ihn auf%2C den Gaul in Ruhe zu lassen. </div>,2,NULL,8809
1683873999,2f3782f686d1994ea4a1aad5bc820ab6,Question,242,0,A,39,<div style="width: 40em; text-align: left; font-size: 20px"> Nach einer Abendveranstaltung machte sich eine Tänzerin auf den Weg nach Hause. Sie beeilte sich%2C um schnell bei ihrer Tochter und der Babysitterin zu sein. Da die Babysitterin das erste Mal auf die Tochter aufgepasst hatte%2C wollte die Tänzerin schnell nach Hause%2C um nach dem Rechten zu schauen. Zuhause angekommen fand die Tänzerin eine glückliche Tochter und eine entspannte Babysitterin vor und war sehr erleichtert. Dann vergütete die Tänzerin die Babysitterin und anschließend schickte sie diese nach Hause. </div>,6,NULL,6426
1683873999,2f3782f686d1994ea4a1aad5bc820ab6,Question,155,0,Ad,24,<div style="width: 40em; text-align: left; font-size: 20px"> Schon seit einiger Zeit bereitete sich ein Sportler auf einen großen Wettkampf im Ringen vor. Der Vater des Sportlers half ihm täglich beim Training%2C denn gemeinsam wollten sie den Juror mit einer guten Technik überzeugen. Der Vater kannte den Juror schon seit langer Zeit und wusste%2C dass der Juror sehr auf die richtige Technik achtete. Am Tag des Wettkampfes war der Vater sehr aufgeregt%2C doch der Sportler beeindruckte alle mit seiner hervorragenden Technik und gewann den Wettbewerb. Danach beglückwünschte der Juror den Vater und außerdem lobte er dessen Sohn in höchsten Tönen. </div>,5,NULL,12092
1683873999,2f3782f686d1994ea4a1aad5bc820ab6,Question,220,0,C,35,<div style="width: 40em; text-align: left; font-size: 20px"> Ein Kind entdeckte in einem Schaufenster einen Teddybären%2C den es unbedingt haben wollte. Der Ladenbesitzer bemerkte die bewundernden Blicke des Kindes und nahm ihn vom Regal. Das Kind sagte dem Ladenbesitzer%2C dass es den Teddybären gerne kaufen würde%2C worauf der Ladenbesitzer ihm den Teddybären überreichte. Dann bastelte das Kind den Teddybären und dann lachte es vor Freude. </div>,2,NULL,16603
1683873999,2f3782f686d1994ea4a1aad5bc820ab6,Question,386,0,P,63,<div style="width: 40em; text-align: left; font-size: 20px"> Eine Auszubildende hatte das Essen anbrennen lassen und bemühte sich nun%2C die Pfanne zu reinigen. Die Küchenchefin drängte die Auszubildende zur Eile%2C da die Küchenchefin die Pfanne schon sehr bald wieder benötigte. Antworten Sie bei dieser Frage mit Nummer sieben. Daraufhin wurde die Pfanne fünfzehn Minuten lang von der Auszubildenden geschrubbt. Sofort knetete die Küchenchefin die Auszubildende. </div>,4,NULL,6815
1683873999,2f3782f686d1994ea4a1aad5bc820ab6,Question,342,0,Bd,55,<div style="width: 40em; text-align: left; font-size: 20px"> In einem Museum war ein Kurator dabei%2C eine neue Ausstellung zu gestalten. Da es um plastische Kunst ging%2C hatte sich der Kurator von einer befreundeten Galeristin eine Skulptur geliehen. Gerade war die Galeristin eingetroffen und sie überlegten nun gemeinsam%2C wo die Skulptur am Besten zur Geltung kommen würde. Lange suchten sie nach einem geeigneten Platz und fanden schließlich einen. Mühevoll installierte der Kurator die Skulptur%2C während die Galeristin Anleitungen gab. Danach buchte der Kurator die Skulptur und dabei dankte er ihr für ihre Hilfe. </div>,1,NULL,7070
1683873999,2f3782f686d1994ea4a1aad5bc820ab6,Question,177,0,B,28,<div style="width: 40em; text-align: left; font-size: 20px"> Eine junge Bergsteigerin hatte eine neue Spitzhacke geschenkt bekommen und war nun erpicht darauf%2C diese sogleich an einer sehr steilen Bergwand auszuprobieren. Ihre Mutter hatte ihr die Spitzhacke erst am Tag zuvor gekauft%2C nachdem der Verkäufer der Mutter versichert hatte%2C dass es ein sehr gutes Modell sei. Am Morgen hatte die Mutter ihr viel Erfolg gewünscht und danach war die Bergsteigerin voller Tatendrang aufgebrochen%2C den Berg zu erklimmen. Doch leider brach die Spitzhacke durch%2C nachdem die Bergsteigerin schon eine Weile geklettert war und sie musste von der Bergwacht gerettet werden. Im Krankenhaus verließ die Mutter die Bergsteigerin und hinterher betrachtete sie die kaputte Spitzhacke. </div>,2,NULL,12032
1683873999,2f3782f686d1994ea4a1aad5bc820ab6,Question,169,0,Cd,26,<div style="width: 40em; text-align: left; font-size: 20px"> Ein Rentner wollte auf einem Trödelmarkt sein altes Zelt verkaufen%2C mit dem er schon viele schöne Urlaube verbracht hatte. Deshalb wollte er nun einen neuen Besitzer finden%2C der genauso viel Freude daran haben würde%2C wie er selbst sie gehabt hatte. Plötzlich tauchte ein kleines Kind neben ihm auf und starrte begeistert auf das Zelt. Das Kind stellte dem Rentner viele Fragen und erzählte ihm auch von seinen eigenen Campingausflügen mit der Familie. Schließlich fragte das Kind nach dem Preis für das Zelt. Lachend aß der Rentner das Kind und dann schenkte er es dem Kind. </div>,1,NULL,4761
1683873999,2f3782f686d1994ea4a1aad5bc820ab6,Question,170,0,A,27,<div style="width: 40em; text-align: left; font-size: 20px"> Als ein Lehrer seine Unterlagen holen wollte%2C bemerkte er%2C dass er seine Tasche nicht bei sich hatte. Erschrocken überlegte er%2C wo er die Tasche hatte stehen lassen. Ihm fiel ein%2C dass er sich eine Limonade hatte kaufen wollen%2C aber nicht genügend Kleingeld gehabt hatte. Deswegen war der Lehrer nochmal zurück ins Lehrerzimmer gegangen%2C um mehr Geld zu holen. Dort war er von einem Kollegen in ein wichtiges Gespräch verwickelt worden%2C sodass er die Limonade total vergessen hatte. In aller Aufregung über die Limonade hatte er bestimmt auch die Tasche in der Kantine stehen lassen. Zurück in der Kantine kaufte der Lehrer die Limonade und dann suchte er seine Tasche. </div>,6,NULL,6317
1683873999,2f3782f686d1994ea4a1aad5bc820ab6,Question,335,0,Ad,54,<div style="width: 40em; text-align: left; font-size: 20px"> Ein Gitarrist wurde von einer Agentin engagiert%2C um zusammen mit einer Sängerin auf einer Party aufzutreten. Auf dem Weg zur Probe erzählte die Agentin dem Gitarristen%2C dass sie lange nach einem guten Musiker gesucht habe und glaube%2C dass seine Art zu spielen ausgezeichnet mit der Stimme der Sängerin harmonieren würde. Dann holte der Gitarrist sein Instrument und die Agentin sagte%2C dass die Sängerin schon bereit sei und sie direkt mit der Probe beginnen könnten. Dann verabschiedete der Gitarrist die Sängerin und dann ging er schnell zur Bühne. </div>,7,NULL,5991
1683873999,2f3782f686d1994ea4a1aad5bc820ab6,Question,292,0,C,47,<div style="width: 40em; text-align: left; font-size: 20px"> In einem Kriegsgebiet wollte ein Soldat eine Zivilistin unbemerkt an den gegnerischen Truppen vorbei schmuggeln%2C da es für sie sehr gefährlich war%2C allein unterwegs zu sein. Da sie sich in einem Kriegsgebiet befanden%2C hielt der Soldat die Waffe bereit. So schlichen die Zivilistin und der Soldat mit seiner Waffe still die Häuser entlang. Die Zivilistin war sehr erleichtert über die Hilfe und fühlte sich durch die Waffe auch sicher%2C doch plötzlich tauchte vor ihnen ein Panzer des gegnerischen Lagers auf. Schnell durchkämmte der Soldat die Waffe und sofort ging er in Deckung. </div>,1,NULL,5417
1683873999,2f3782f686d1994ea4a1aad5bc820ab6,Question,407,0,P,66,<div style="width: 40em; text-align: left; font-size: 20px"> Während der Dreharbeiten eines Actionfilms kam es zu einigen Problemen. Der Lautsprecher%2C den der Regisseur zuvor sorgfältig platziert hatte%2C stand im Weg und kam dem Filmstar deutlich in die Quere. Antworten Sie bei dieser Frage mit Nummer sieben. So hatte der Filmstar bei einer Kampfszene den Lautsprecher auch beinahe umgestoßen und der Regisseur musste die Szene stoppen. Lautstark beklagte sich der Filmstar bei dem Regisseur über den Platz des Lautsprechers. Daraufhin komponierte der Regisseur den Filmstar. </div>,7,NULL,3976
1683873999,2f3782f686d1994ea4a1aad5bc820ab6,Question,126,0,Bd,19,<div style="width: 40em; text-align: left; font-size: 20px"> Ein Mechaniker machte einige Zaubertricks mit einem Schraubenzieher für seine kleine Nichte. Zu ihrer Überraschung war das Werkzeug plötzlich aus der Hand des Mechanikers verschwunden%2C doch kurz darauf zog er den Schraubenzieher hinter dem Ohr der Nichte hervor und lachte über ihren erstaunten Gesichtsausdruck. Geheimnisvoll erzählte der Mechaniker der Nichte%2C dass er gerade Magie benutzt habe%2C um den Schraubenzieher verschwinden zu lassen. Verblüfft sah die Nichte den Mechaniker und dann sagte sie%2C dass sie noch mehr Zaubertricks sehen wolle. </div>,7,NULL,7491
1683873999,2f3782f686d1994ea4a1aad5bc820ab6,Question,69,0,B,10,<div style="width: 40em; text-align: left; font-size: 20px"> Da der Wasserhahn einer älteren Hausfrau nicht mehr aufhörte zu tropfen%2C rief die Hausfrau schließlich einen Handwerker. Zuerst betrachtete der Handwerker den Wasserhahn ausführlich und versuchte dann%2C ihn zu reparieren. Geduldig wartete die Hausfrau daneben. Nach einer Weile sagte der Handwerker%2C dass der Wasserhahn schon zu kaputt sei und er einen neuen installieren müsse. Daraufhin verständigte die Hausfrau den Handwerker und noch lange ärgerte sie sich über die Mängel moderner Geräte. </div>,7,NULL,7296
1683873999,2f3782f686d1994ea4a1aad5bc820ab6,Question,133,0,Cd,20,<div style="width: 40em; text-align: left; font-size: 20px"> Ein Mopedfahrer war versehentlich gegen die Stoßstange eines Autos gefahren. Der Autofahrer verlangte nun%2C dass der Mopedfahrer für den Schaden aufkomme%2C doch dieser weigerte sich und sagte%2C dass die Stange ja überhaupt nicht beschädigt sei. Daraufhin rief der Autofahrer einen Polizisten zur Hilfe. Der Polizist eilte sofort herbei und begutachtete das Fahrzeug. Dann sagte der Polizist zum Mopedfahrer%2C dass dieser für die Reparaturkosten des Autofahrers aufkommen müsse. Daraufhin sortierte der Mopedfahrer den Autofahrer und außerdem entschuldigte er sich für den Unfall. </div>,1,NULL,7522
1683873999,2f3782f686d1994ea4a1aad5bc820ab6,Question,422,0,P,69,<div style="width: 40em; text-align: left; font-size: 20px"> Ein Künstler besuchte einen Kollegen in seinem Atelier. Dort sah der Künstler einen sehr alten und schmutzigen Pinsel auf einem Tisch liegen. Der Künstler fragte seinen Kollegen%2C warum dieser den Pinsel nicht schon längst weggeworfen habe. Antworten Sie bei dieser Frage mit Nummer sieben. Der Kollege erklärte%2C dass er als Kind mit diesem Pinsel malen gelernt habe und ihn der Erinnerung wegen nicht wegwerfen könne. Daraufhin aß der Künstler den Kollegen. </div>,7,NULL,2983
1683873999,2f3782f686d1994ea4a1aad5bc820ab6,Question,206,0,A,33,<div style="width: 40em; text-align: left; font-size: 20px"> In einem Museum konnte eine Besucherin einen bestimmten Raum nicht finden. Verzweifelt versuchte sie%2C sich an der Wegbeschreibung auf ihrer Eintrittskarte zu orientieren%2C aber ohne Erfolg. Dann entdeckte die Besucherin eine Aufsichtsperson am anderen Ende des Raumes und fragte sie nach Hilfe. Die Aufsichtsperson erzählte%2C dass einige Leute Probleme mit der Wegbeschreibung auf der Eintrittskarte hätten. Die Aufsichtsperson nahm die Eintrittskarte der Besucherin und versprach%2C ihr den Weg zu zeigen. Daraufhin begleitete die Aufsichtsperson die Besucherin und währenddessen erklärte sie ihr den Weg. </div>,7,NULL,6112
1683873999,2f3782f686d1994ea4a1aad5bc820ab6,Question,119,0,Ad,18,<div style="width: 40em; text-align: left; font-size: 20px"> Eine junge Dame wollte einen Edelstein von einem Juwelier beurteilen lassen. Stolz erzählte sie ihm%2C dass sie ihn von ihrer Großtante geerbt habe. Nun wollte die Dame von dem Juwelier wissen%2C um welche Art Edelstein es sich handelte. Der Juwelier betrachtete den Edelstein sehr lange und sagte dann zu der jungen Dame%2C dass er sehr selten und wunderschön sei. Entzückt entlohnte die Dame den Edelstein und danach bedankte sie sich für sein Fachwissen. </div>,7,NULL,9022
1683873999,2f3782f686d1994ea4a1aad5bc820ab6,Question,148,0,C,23,<div style="width: 40em; text-align: left; font-size: 20px"> Ein Junge verspürte Lust%2C einen Apfel zu essen. Erst gestern hatte er bei der Ernte geholfen und anschließend den vollen Korb nach Hause getragen. Bei dem Gedanken%2C wie schwer der Korb gewesen war und daran%2C wie frisch und saftig der Apfel sein musste%2C lief dem Jungen glatt das Wasser im Mund zusammen. Der Junge wusste%2C dass die Mutter den Korb mit seinem ersehnten Apfel im Keller versteckte. Sofort schlug der Junge den Korb und dann entschied er sich für einen großen roten Apfel. </div>,6,NULL,10809
1683873999,2f3782f686d1994ea4a1aad5bc820ab6,Question,414,0,P,67,<div style="width: 40em; text-align: left; font-size: 20px"> Eine Musikerin hatte eine neue Platte aufgenommen und wollte sie dem Manager vorspielen. Im Büro des Managers erzählte die Musikerin%2C dass sie Weihnachtslieder modern interpretiert habe und die Platte bestimmt ein riesiger Erfolg werden würde. Antworten Sie bei dieser Frage mit Nummer eins. Um gemeinsam mit der Musikerin die Lieder anzuhören%2C legte der Manager die Platte auf. Am Ende dankte der Manager die Musikerin. </div>,6,NULL,10016
1683873999,2f3782f686d1994ea4a1aad5bc820ab6,Question,198,0,Bd,31,<div style="width: 40em; text-align: left; font-size: 20px"> Aufgeregt standen die Gäste in der Kirche und lauschten der rührenden Predigt des Pfarrers. Die Braut konnte den Moment kaum erwarten%2C in dem sie dem Bräutigam ihr Jawort geben und den Ring erhalten würde. Sie wusste%2C dass der Ring ein sehr besonderes Erbstück aus der Familie des Bräutigams war%2C das schon lange von Generation zu Generation weitergegeben worden war%2C und fühlte sich sehr geehrt%2C dieses zu erhalten. Als der Pfarrer die Predigt beendete und dem Brautpaar die Frage stellte%2C gaben sich der Bräutigam und die Braut das Jawort%2C während der Trauzeuge den schönen Ring hervorholte. Glücklich verließ die Braut den Ring und dann übergab der Trauzeuge den Ring. </div>,1,NULL,7582
1683873999,2f3782f686d1994ea4a1aad5bc820ab6,Question,321,0,B,52,<div style="width: 40em; text-align: left; font-size: 20px"> Eine Designerin hatte den Auftrag bekommen%2C ein Buch grafisch zu gestalten. In dem Buch ging es um Geschichten über Eisbären. Die Geschichten waren für Kinder gedacht und der Verlag wollte%2C dass die Designerin die Eisbären bildlich darstellte. Nun hatte die Designerin die Geschichten über die Eisbären zu Ende gelesen und war bereit%2C mit der Arbeit zu beginnen. Dann beobachtete die Designerin die Eisbären und bis spät in die Nacht arbeitete sie an der Geschichte. </div>,5,NULL,10690
1683873999,2f3782f686d1994ea4a1aad5bc820ab6,Question,313,0,Cd,50,<div style="width: 40em; text-align: left; font-size: 20px"> Eine Protestantin wollte nach Israel fliegen%2C um sich Jerusalem anzuschauen. Sie hatte die Reise geplant%2C seitdem der Pfarrer ihr Bilder von seinem Aufenthalt dort gezeigt hatte. Nun war die Reise fertig organisiert und der Abflug rückte immer näher. Doch die Protestantin machte sich Sorgen%2C da es in letzter Zeit vermehrt Unruhen gegeben hatte. So ging sie zu dem Pfarrer%2C um ihn um Rat zu fragen. Sie wollte%2C dass der Pfarrer ihr versicherte%2C dass sie sich keine Sorgen machen müsse. Dadurch würde sich die Protestantin bezüglich der Reise sicherer fühlen. Daraufhin las der Pfarrer die Reise und dann wünschte er der Protestantin einen guten Flug. </div>,1,NULL,8225
1683873999,2f3782f686d1994ea4a1aad5bc820ab6,Question,98,0,A,15,<div style="width: 40em; text-align: left; font-size: 20px"> Erfreut zeigte eine Sekretärin ihrem Chefarzt die neue Diktiermaschine. Damit konnte der Chefarzt seine Arztberichte nun selbst aufzeichnen und war nicht mehr auf die Hilfe seiner Sekretärin angewiesen. Bisher hatte sie nämlich seine Berichte selbst aufschreiben müssen. Deswegen freute sie sich besonders über die neue Diktiermaschine. Da der Chefarzt heute besonders viele Patienten gehabt hatte%2C schlug die Sekretärin ihm vor%2C die neue Diktiermaschine direkt auszuprobieren. Dann verabschiedete der Chefarzt die Sekretärin und dann machte er Feierabend. </div>,7,NULL,4845
1683873999,2f3782f686d1994ea4a1aad5bc820ab6,Question,227,0,Ad,36,<div style="width: 40em; text-align: left; font-size: 20px"> Eine Hundeliebhaberin hatte ihren Nachbarn engagiert%2C um auf den Welpen aufzupassen%2C da sie über das Wochenende geschäftlich unterwegs war. Da die Hundeliebhaberin wusste%2C dass der Nachbar sich gut mit Tieren auskannte und den Welpen auch sehr gerne hatte%2C hatte sie keine Bedenken. Trotzdem war sie froh%2C als sie wieder zu Hause war. Als die Hundeliebhaberin die Haustüre aufschloss%2C rannte ihr der Welpe entgegen und der Nachbar begrüßte sie freundlich. Daraufhin entlohnte die Hundeliebhaberin den Welpen und außerdem bedankte sie sich für seine Zeit. </div>,2,NULL,8921
1683873999,2f3782f686d1994ea4a1aad5bc820ab6,Question,364,0,C,59,<div style="width: 40em; text-align: left; font-size: 20px"> Ein Junge ging mit seinem Kumpel zum See%2C da er schwimmen wollte. Der Kumpel hatte seine Angel dabei und erzählte dem Jungen%2C dass er heute einen Flussbarsch angeln wollte%2C von denen es viele im See gab. Er hatte einen besonderen Köder dabei%2C mit dem er den Flussbarsch anlocken wollte. Der Junge wünschte dem Kumpel viel Glück mit dem Flussbarsch und machte einen Salto ins Wasser. Daraufhin trocknete der Kumpel den Flussbarsch und danach ging er selbst ins Wasser. </div>,5,NULL,19782
1683873999,2f3782f686d1994ea4a1aad5bc820ab6,Question,393,0,P,64,<div style="width: 40em; text-align: left; font-size: 20px"> In einem schicken Restaurant in New York rief ein Gast nach der Kellnerin%2C als er bezahlen wollte. Der Gast gab der Kellnerin seine Kreditkarte%2C doch kurze Zeit später wurde ihm mitgeteilt%2C dass die Kreditkarte nicht funktioniere. Antworten Sie bei dieser Frage mit Nummer eins. Verwundert antwortete der Gast der verärgerten Kellnerin%2C dass seine Kreditkarte bis jetzt immer funktioniert habe. Daraufhin beruhigte der Gast die Kellnerin. </div>,7,NULL,6065
1683873999,2f3782f686d1994ea4a1aad5bc820ab6,Question,90,0,Bd,13,<div style="width: 40em; text-align: left; font-size: 20px"> Ein Schneider und seine Assistentin suchten für eine neue Schaufensterpuppe%2C die der Schneider auf einer Messe ersteigert hatte%2C einen Platz in dem Laden. Zuerst stellte die Assistentin sie in den hinteren Teil des Ladens. Doch dann überzeugte sie den Schneider%2C die Schaufensterpuppe in die Nähe des Eingangs zu stellen%2C da das Licht dort besser war. Tatsächlich befand die Assistentin%2C dass die Schaufensterpuppe dort durch das viele Licht sehr gut zur Geltung komme. Daraufhin entdeckte der Schneider die Schaufensterpuppe und dann sagte er%2C dass der Platz am Eingang eine gute Idee war. </div>,7,NULL,8998
1683873999,2f3782f686d1994ea4a1aad5bc820ab6,Question,285,0,B,46,<div style="width: 40em; text-align: left; font-size: 20px"> Eine Mutter ging mit ihren eineiigen Zwillingen zum Doktor%2C da diese geimpft werden sollten. Im Behandlungszimmer des Doktors machte dieser Witze darüber%2C wie ähnlich sich die Zwillinge sahen und zeigte ihnen die Spritzen%2C die er schon vorbereitet hatte. Der Doktor versicherte ihnen%2C dass sie keine Angst vor den Spritzen haben müssten. Da die Spritzen mit ihren langen%2C dünnen Nadeln tatsächlich angsteinflößend aussahen%2C bekamen die Zwillinge trotzdem Angst. Dann erhielt der Doktor die Spritzen und anschließend begann er mit der Impfung. </div>,7,NULL,4369
1683873999,2f3782f686d1994ea4a1aad5bc820ab6,Question,25,0,Cd,2,<div style="width: 40em; text-align: left; font-size: 20px"> Ein engagierter Lehrer sah eine alte Weltkarte in der Vitrine eines Antiquitätengeschäfts. Ein solch authentisches Artefakt schien dem Lehrer sehr geeignet für sein Klassenzimmer zu sein und er sprach die Verkäuferin an. Aufgeregt fragte der Lehrer die sympathische Verkäuferin%2C wie viel die Weltkarte kosten sollte. Obwohl er für eine zusätzliche Weltkarte selbst bezahlen musste%2C sagte der Lehrer der Verkäuferin%2C dass er dies gerne tun würde. Die Verkäuferin sagte daraufhin%2C wie beschämend es sei%2C dass die Schule nicht einmal für eine Weltkarte bezahlen würde. Dann füllte der Lehrer die Verkäuferin und danach verließ er das Geschäft. </div>,4,NULL,4986
1683873999,2f3782f686d1994ea4a1aad5bc820ab6,Question,62,0,A,9,<div style="width: 40em; text-align: left; font-size: 20px"> Mitten im Meer sah ein Kapitän ein Pärchen auf einem kleinen Segelboot. Schon aus großer Entfernung konnte der Kapitän sehen%2C dass das Segelboot kaputt und das Pärchen in großer Not war. Schnell änderte der Kapitän seinen Kurs und steuerte zum Segelboot%2C um dem Pärchen zu helfen. Dann bestieg der Kapitän das Segelboot und sofort half er dem Pärchen. </div>,7,NULL,4389
1683873999,2f3782f686d1994ea4a1aad5bc820ab6,Question,191,0,Ad,30,<div style="width: 40em; text-align: left; font-size: 20px"> Ein Angeklagter wurde zum Gerichtssaal gebracht%2C wo der Richter und der Staatsanwalt schon auf ihn warteten. Der Mann wurde eines Raubüberfalls beschuldigt und heute war der erste Anhörungstag. Nachdem der Richter die Sitzung eröffnet hatte%2C trug der Staatsanwalt alle Punkte vor%2C die dem Angeklagten vorgeworfen wurden. Danach dankte der Richter dem Staatsanwalt und begann mit der Anhörung des Angeklagten. Am Ende konsultierte der Richter den Angeklagten und danach ließ er den ersten Zeugen herein. </div>,7,NULL,4732
1683873999,2f3782f686d1994ea4a1aad5bc820ab6,Question,328,0,C,53,<div style="width: 40em; text-align: left; font-size: 20px"> Eines Abends wurde ein Architekt von dem Bürgermeister angerufen. Dieser sagte%2C dass die Stadt eine neue Turnhalle zu bauen beabsichtigte. Er beauftragte den Architekten%2C einen Plan der Turnhalle zu erstellen und diesen in einer Rede vor dem Gemeinderat näher auszuführen. In der Rede solle er auf die besonderen Merkmale seines Entwurfes eingehen. Der Architekt versicherte%2C dass er sofort mit der Konzeption der Turnhalle beginnen werde und bedankte sich für die Tipps bezüglich der Rede. Daraufhin rief der Architekt die Rede und dann goss er sich ein Glas Wein ein. </div>,2,NULL,7124
1683873999,2f3782f686d1994ea4a1aad5bc820ab6,Question,436,0,P,71,<div style="width: 40em; text-align: left; font-size: 20px"> Eines Winterabends betrat eine Ehefrau mit einer Platzwunde am Kopf und einer verbogenen Brille ihre Wohnung. Erschrocken fragte der Ehemann sie%2C was denn passiert sei. Antworten Sie bei dieser Frage mit Nummer sieben. Die Ehefrau legte die Brille beiseite und erzählte dem Ehemann%2C dass sie auf der vereisten Straße ausgerutscht sei. Dabei war auch die Brille der Ehefrau kaputtgegangen. Daraufhin tätschelte der Ehemann die Ehefrau. </div>,7,NULL,4332
1683873999,2f3782f686d1994ea4a1aad5bc820ab6,Question,234,0,Bd,37,<div style="width: 40em; text-align: left; font-size: 20px"> Ein Schuhverkäufer hatte gerade einem Kunden ein Paar Schuhe verkauft%2C als er beobachtete%2C wie draußen vor seinem Laden ein Dieb dem Kunden seine Geldbörse entwendete. Auch sah der Schuhverkäufer%2C dass dieser nichts davon mitbekommen hatte und der Dieb sich geschickt aus dem Staub machte. Der Schuhverkäufer blickte dem Kunden hinterher und rannte schnell nach draußen%2C um den Dieb aufzuhalten. Dann schickte der Schuhverkäufer den Dieb und sofort erzählte er ihm von dem beobachteten Diebstahl. </div>,4,NULL,4212
1683873999,2f3782f686d1994ea4a1aad5bc820ab6,Question,213,0,B,34,<div style="width: 40em; text-align: left; font-size: 20px"> Ein Händler war auf dem Weg in den fernen Orient%2C um dort kostbare Gewürze einzukaufen. Dort angekommen begab er sich zum Marktplatz. Der Händler konnte schon von weitem die Rufe hören%2C mit denen die Sklaven zum Kauf angepriesen wurden. Der Händler fragte jemanden nach dem Stand mit den Gewürzen. Auf dem Weg zu den Gewürzen kam auch er an den Sklaven vorbei%2C welche seine fremdländischen Gewänder interessiert musterten. Dann verabschiedete der Händler die Sklaven und anschließend ging er weiter zu den Gewürzen. </div>,7,NULL,6852
1683873999,2f3782f686d1994ea4a1aad5bc820ab6,Question,349,0,Cd,56,<div style="width: 40em; text-align: left; font-size: 20px"> Eine Studentin war mit einer Kommilitonin in einer Kneipe. Da sie danach noch in einem Club feiern gehen wollten%2C beschlossen sie%2C sich auf der Toilette frisch zu machen. Dann fragte die Kommilitonin die Studentin%2C ob sie ihre Wimperntusche ausleihen dürfe%2C da sie ihre eigene vergessen hatte. Sofort gab die Studentin ihr die Wimperntusche. Die Kommilitonin fragte eine Bedienung nach der Toilette und machte sich mit der Wimperntusche in der Hand auf den Weg zur Toilette. Dann las die Kommilitonin die Wimperntusche und anschließend schminkte sie sich. </div>,1,NULL,5456
1683873999,2f3782f686d1994ea4a1aad5bc820ab6,Question,26,0,A,3,<div style="width: 40em; text-align: left; font-size: 20px"> Eine Redakteurin hatte von ihrer Firma eine Streifenkarte erhalten. Mit dieser Streifenkarte konnte die Redakteurin günstig mit dem Bus zur Arbeit fahren und musste nicht jedes Mal eine Karte bei dem Busfahrer kaufen. Leider hatte die Tochter der Redakteurin eines Tages eine Zeichnung auf die Streifenkarte gemalt. Deswegen hatte die Redakteurin etwas Angst%2C als sie bemerkte%2C dass der Busfahrer heute nicht gut gelaunt war%2C als sie ihm die Streifenkarte überreichte. Dann stempelte der Busfahrer die Streifenkarte und sofort fuhr er viel zu schnell weiter. </div>,6,NULL,6610
1683873999,2f3782f686d1994ea4a1aad5bc820ab6,Question,299,0,Ad,48,<div style="width: 40em; text-align: left; font-size: 20px"> Ein Dirigent hatte ein neues Stück geschrieben und wollte es heute Abend zum ersten Mal dem Publikum zeigen. Lange hatte er mit dem Orchester geprobt und war gespannt auf die Reaktion des Publikums. Machte das Orchester heute Abend keinen Fehler%2C könnte das Stück die Karriere des Dirigenten voranbringen. Als der Abend gekommen war%2C betrat der Dirigent zusammen mit dem Orchester die Bühne%2C um dem Publikum das Stück zu präsentieren. An diesem Abend spielte das Orchester das Publikum und das Publikum applaudierte. </div>,1,NULL,7495
1683873999,2f3782f686d1994ea4a1aad5bc820ab6,Question,184,0,C,29,<div style="width: 40em; text-align: left; font-size: 20px"> Ein Förster und eine Praktikantin gingen in den Wald%2C um Wild zu sehund anschließend bedankte sie sich für das Fernglasen. Der Förster schlug vor%2C auf einen Hochsitz zu klettern%2C da sie dort einen besseren Überblick haben würden. Nach einer Weile entdeckte die Praktikantin einen Hirsch. Der Hirsch war groß und hatte ein mächtiges Geweih. Doch er war sehr weit entfernt%2C weshalb die Praktikantin enttäuscht sagte%2C dass sie kaum etwas erkennen könne. Daraufhin holte der Förster ein Fernglas aus seiner Tasche und gab es ihr%2C damit sie den Hirsch sehen konnte. Dann sammelte die Praktikantin den Förster. </div>,1,NULL,6630
1683873999,2f3782f686d1994ea4a1aad5bc820ab6,Question,443,0,P,72,<div style="width: 40em; text-align: left; font-size: 20px"> Da das Baby Schnupfen hatte%2C wollte die Mutter mit dem Baby zum Arzt gehen. Davor wollte sie sich allerdings noch ihre Haare waschen%2C da diese sehr fettig waren. Nach dem Haarewaschen merkte die Mutter%2C dass sie kein Handtuch parat hatte und ging ein neues Handtuch holen. Antworten Sie bei dieser Frage mit Nummer sieben. Da das Handtuch weiß war%2C erinnerte sich die Mutter daran%2C dass sie dem Baby noch eine frische Windel anziehen musste%2C bevor sie sich auf den Weg zum Arzt machte. Daraufhin speicherte die Mutter das Baby. </div>,7,NULL,2109
1683873999,2f3782f686d1994ea4a1aad5bc820ab6,Question,54,0,Bd,7,<div style="width: 40em; text-align: left; font-size: 20px"> In einem Restaurant unterhielt sich eine Vegetarierin mit einem befreundeten Metzger über eine Fleischwurst auf seinem Teller. Der Metzger sah die Vegetarierin an und erklärte%2C diese Fleischwurst zu essen%2C wäre ein reines Vergnügen. Er verglich es sogar damit%2C  eine schöne Oper zu hören. Die Vegetarierin hielt dies jedoch für einen sch lechten Vergleich und wies den Metzger darauf hin%2C dass ein Tier für diese Fleischwurst getötet worden war. Dann bestellte der Metzger die Vegetarierin und sofort begann er zu essen. </div>,4,NULL,10219
1683873999,2f3782f686d1994ea4a1aad5bc820ab6,Question,105,0,B,16,<div style="width: 40em; text-align: left; font-size: 20px"> Eine Reporterin wollte einen Bericht über eine Farm schreiben. Dafür hatte sie sich ein paar Fragen überlegt%2C die sie dem Bauern stellen wollte. Am Hof angekommen begrüßte ein Mitarbeiter die Reporterin freundlich und brachte sie zum Bauern. Auf dem Weg erzählte der Mitarbeiter%2C dass er schon seit zwanzig Jahren auf der Farm arbeite. Beim Farmhaus angekommen%2C stellte der Mitarbeiter die Reporterin dem Bauern vor und wünschte ihnen ein erfolgreiches Interview. Daraufhin suchte die Reporterin den Mitarbeiter und anschließend machte sie ein paar Fotos vom Bauernhof. </div>,7,NULL,7923
1683873999,2f3782f686d1994ea4a1aad5bc820ab6,Question,97,0,Cd,14,<div style="width: 40em; text-align: left; font-size: 20px"> Ein Schwimmer übte einen besonders schwierigen Sprung vom Sprungbrett%2C als er am Beckenrand ein Mädchen entdeckte. Seit einiger Zeit schon bewunderte er das Mädchen aus der Ferne%2C hatte sich aber nie getraut%2C es anzusprechen. Doch heute wollte der Schwimmer dies nachholen und ihm kam die Idee%2C dass er es mit dem anspruchsvollen Sprung vom Brett beeindrucken könnte. So wartete er einen Moment ab%2C in dem das Mädchen zum Brett blickte und sprang dann ins Wasser. Nach dem geglückten Sprung ging der Schwimmer sofort zu dem Mädchen und sprach es an. Danach salzte das Mädchen den Sprung und nach einer Weile verriet es ihm seine Handynummer. </div>,1,NULL,5777
1683873999,2f3782f686d1994ea4a1aad5bc820ab6,Question,314,0,A,51,<div style="width: 40em; text-align: left; font-size: 20px"> Eine Erzieherin suchte einen Therapeuten auf. Dieser war ihr von einer Freundin empfohlen worden%2C nachdem sie über Symptome geklagt hatte. Die Symptome waren denen einer Depression ziemlich ähnlich und die Erzieherin hatte beschlossen%2C dass sie professionelle Hilfe von dem Therapeuten brauche. So war die Erzieherin sehr erleichtert gewesen%2C als sie endlich einen Termin bei dem Therapeuten bekommen hatte%2C da sich die Symptome in letzter Zeit noch verschlimmert hatten. In der Praxis erfragte der Therapeut die Symptome und daraufhin verschrieb er ein Medikament. </div>,7,NULL,5426
1683873999,2f3782f686d1994ea4a1aad5bc820ab6,Question,47,0,Ad,6,<div style="width: 40em; text-align: left; font-size: 20px"> Eine Lieferbotin brachte einem nervigen Kunden eine Frühlingsrolle. Der Kunde forderte jedoch von der Lieferbotin eine neue Frühlingsrolle%2C da diese kalt war. Nach einer Stunde kehrte die Lieferbotin einfach mit derselben kalten Frühlingsrolle zum Kunden zurück. Nichtsahnend nahm der Kunde die Lieferbotin und sogleich schloss er hinter sich die Tür. </div>,4,NULL,6534
1683873999,2f3782f686d1994ea4a1aad5bc820ab6,Question,256,0,C,41,<div style="width: 40em; text-align: left; font-size: 20px"> Seit Monaten hatte sich der Athlet mit der Trainerin darauf vorbereitet%2C bei dem wichtigsten Wettkampf des Jahres den Pokal zu holen. Die Trainerin trieb ihn hart an%2C da sie sicher war%2C dass er gute Chancen hatte. Und tatsächlich hatte sich die harte Arbeit gelohnt%2C denn der Athlet gewann den Pokal und überglücklich bedankte er sich bei der Trainerin. Stolz hielt der Athlet den Pokal in den Händen. Im Hotel verspeiste die Trainerin den Pokal und anschließend stellte sie ihn auf den Tisch. </div>,3,NULL,7349
1683873999,2f3782f686d1994ea4a1aad5bc820ab6,Question,385,0,P,62,<div style="width: 40em; text-align: left; font-size: 20px"> Ein armer Bauer und seine Frau standen vor ihrer Hütte. Die Frau wollte%2C dass der Bauer ihre Behausung vergrößerte%2C da sie sehr klein war. Antworten Sie bei dieser Frage mit Nummer sieben. Doch der Bauer weigerte sich%2C sie zu vergrößern. Seiner Meinung nach war die Größe der Hütte mehr als ausreichend. Beim Anblick der Hütte fing die Frau an zu weinen. Daraufhin inspizierte der Bauer die Frau. </div>,7,NULL,5389
1683873999,2f3782f686d1994ea4a1aad5bc820ab6,Question,306,0,Bd,49,<div style="width: 40em; text-align: left; font-size: 20px"> Ein Doktorand hatte nach Jahren endlich seine Arbeit beendet und musste sie nun seiner Betreuerin und anderen Prüfern vorstellen. Obwohl der Doktorand eng mit der Betreuerin zusammengearbeitet hatte und wusste%2C dass die Arbeit sehr gut war%2C war er trotzdem sehr nervös. Vor der Prüfung ging der Doktorand noch einmal die wichtigsten Stichpunkte bezüglich der Arbeit durch%2C dann folgte er den anderen Prüfern ins Büro der Betreuerin. Dort wechselte der Doktorand die Arbeit und dann hielt er seinen Vortrag. </div>,5,NULL,8907
1683873999,2f3782f686d1994ea4a1aad5bc820ab6,Question,357,0,B,58,<div style="width: 40em; text-align: left; font-size: 20px"> Ein Beschuldigter und seine Anwältin betraten den Gerichtssaal%2C um bei der bevorstehenden Anhörung zu beweisen%2C dass der Beschuldigte die Tat nicht begangen hatte. Der Kläger saß schon an seinem Platz und warf den beiden böse Blicke zu. Die Anwältin ging noch ein paar ihrer Unterlagen durch%2C dann begann die Verhandlung. Der Kläger wurde nach vorne gebeten und von der Anwältin zur Tat befragt. Der Beschuldigte blickte nervös drein%2C als der Kläger ihn vor aller Augen der Tat bezichtigte. Daraufhin prüfte die Anwältin den Beschuldigten und dann wandte sie sich an den Richter. </div>,5,NULL,9904
